File: Fig 2/Fig2_XRD_balcite_as_synth.csv
Bragg_angle,Intensity
\circ,a.u.
10,348
10.06,300
10.12,295
10.18,297
10.24,288
10.3,288
10.36,272
10.42,262
10.48,218
10.54,204
10.6,164
10.66,167
10.72,153
10.78,155
10.84,160
10.9,153
10.96,141
11.02,142
11.08,143
11.14,157
11.2,145
11.26,141
11.32,170
11.38,166
11.44,142
11.5,147
11.56,155
11.62,154
11.68,146
11.74,132
11.8,131
11.86,151
11.92,152
11.98,143
12.04,163
12.1,126
12.16,148
12.22,149
12.28,146
12.34,161
12.4,134
12.46,131
12.52,161
12.58,120
12.64,161
12.7,175
12.76,164
12.82,151
12.88,151
12.94,168
13,146
13.06,153
13.12,139
13.18,141
13.24,147
13.3,179
13.36,183
13.42,156
13.48,151
13.54,152
13.6,161
13.66,152
13.72,133
13.78,141
13.84,156
13.9,138
13.96,130
14.02,158
14.08,143
14.14,158
14.2,162
14.26,158
14.32,135
14.38,170
14.44,169
14.5,156
14.56,171
14.62,128
14.68,126
14.74,128
14.8,149
14.86,134
14.92,138
14.98,154
15.04,153
15.1,146
15.16,173
15.22,154
15.28,151
15.34,160
15.4,164
15.46,150
15.52,165
15.58,151
15.64,138
15.7,140
15.76,166
15.82,138
15.88,146
15.94,155
16,172
16.06,143
16.12,146
16.18,152
16.24,164
16.3,146
16.36,133
16.42,159
16.48,134
16.54,131
16.6,148
16.66,136
16.72,146
16.78,136
16.84,135
16.9,148
16.96,152
17.02,147
17.08,141
17.14,129
17.2,146
17.26,143
17.32,153
17.38,130
17.44,128
17.5,151
17.56,142
17.62,127
17.68,141
17.74,150
17.8,138
17.86,164
17.92,151
17.98,158
18.04,119
18.1,152
18.16,133
18.22,142
18.28,139
18.34,129
18.4,122
18.46,127
18.52,140
18.58,138
18.64,122
18.7,129
18.76,132
18.82,144
18.88,135
18.94,146
19,133
19.06,138
19.12,135
19.18,125
19.24,132
19.3,145
19.36,141
19.42,136
19.48,126
19.54,138
19.6,133
19.66,146
19.72,145
19.78,130
19.84,138
19.9,148
19.96,134
20.02,141
20.08,143
20.14,167
20.2,134
20.26,159
20.32,133
20.38,165
20.44,139
20.5,151
20.56,136
20.62,131
20.68,158
20.74,123
20.8,154
20.86,172
20.92,141
20.98,154
21.04,163
21.1,146
21.16,146
21.22,126
21.28,145
21.34,144
21.4,152
21.46,150
21.52,153
21.58,151
21.64,177
21.7,168
21.76,187
21.82,178
21.88,205
21.94,223
22,255
22.06,287
22.12,369
22.18,414
22.24,551
22.3,660
22.36,794
22.42,925
22.48,934
22.54,870
22.6,728
22.66,543
22.72,380
22.78,300
22.84,258
22.9,225
22.96,189
23.02,185
23.08,171
23.14,151
23.2,149
23.26,150
23.32,161
23.38,151
23.44,145
23.5,152
23.56,133
23.62,153
23.68,144
23.74,116
23.8,151
23.86,140
23.92,132
23.98,120
24.04,123
24.1,146
24.16,128
24.22,136
24.28,140
24.34,129
24.4,102
24.46,138
24.52,141
24.58,127
24.64,134
24.7,125
24.76,153
24.82,145
24.88,134
24.94,121
25,134
25.06,119
25.12,113
25.18,121
25.24,128
25.3,138
25.36,134
25.42,134
25.48,149
25.54,142
25.6,155
25.66,153
25.72,146
25.78,127
25.84,155
25.9,146
25.96,134
26.02,114
26.08,120
26.14,136
26.2,142
26.26,119
26.32,137
26.38,125
26.44,122
26.5,125
26.56,128
26.62,125
26.68,125
26.74,109
26.8,151
26.86,148
26.92,121
26.98,129
27.04,142
27.1,139
27.16,152
27.22,160
27.28,154
27.34,159
27.4,172
27.46,173
27.52,206
27.58,208
27.64,230
27.7,233
27.76,283
27.82,288
27.88,395
27.94,391
28,527
28.06,647
28.12,842
28.18,1087
28.24,1396
28.3,1759
28.36,1950
28.42,1867
28.48,1707
28.54,1307
28.6,996
28.66,733
28.72,580
28.78,451
28.84,343
28.9,269
28.96,245
29.02,217
29.08,206
29.14,191
29.2,159
29.26,161
29.32,139
29.38,150
29.44,150
29.5,137
29.56,152
29.62,169
29.68,137
29.74,148
29.8,134
29.86,150
29.92,150
29.98,129
30.04,120
30.1,137
30.16,115
30.22,118
30.28,125
30.34,116
30.4,118
30.46,112
30.52,111
30.58,105
30.64,101
30.7,114
30.76,105
30.82,114
30.88,97
30.94,111
31,115
31.06,94
31.12,99
31.18,96
31.24,99
31.3,91
31.36,105
31.42,100
31.48,93
31.54,98
31.6,117
31.66,103
31.72,100
31.78,102
31.84,123
31.9,86
31.96,115
32.02,100
32.08,99
32.14,100
32.2,101
32.26,104
32.32,105
32.38,97
32.44,108
32.5,124
32.56,97
32.62,107
32.68,98
32.74,97
32.8,85
32.86,125
32.92,90
32.98,105
33.04,93
33.1,98
33.16,108
33.22,97
33.28,106
33.34,117
33.4,128
33.46,103
33.52,102
33.58,106
33.64,129
33.7,119
33.76,125
33.82,132
33.88,99
33.94,116
34,110
34.06,102
34.12,107
34.18,110
34.24,134
34.3,127
34.36,128
34.42,120
34.48,154
34.54,135
34.6,155
34.66,153
34.72,159
34.78,205
34.84,230
34.9,270
34.96,330
35.02,422
35.08,437
35.14,526
35.2,541
35.26,558
35.32,498
35.38,433
35.44,350
35.5,251
35.56,243
35.62,212
35.68,167
35.74,157
35.8,165
35.86,144
35.92,133
35.98,126
36.04,135
36.1,138
36.16,143
36.22,116
36.28,143
36.34,102
36.4,105
36.46,142
36.52,102
36.58,126
36.64,128
36.7,112
36.76,121
36.82,118
36.88,115
36.94,127
37,125
37.06,113
37.12,126
37.18,112
37.24,135
37.3,119
37.36,128
37.42,105
37.48,121
37.54,106
37.6,119
37.66,117
37.72,109
37.78,113
37.84,134
37.9,126
37.96,121
38.02,126
38.08,129
38.14,104
38.2,127
38.26,105
38.32,103
38.38,125
38.44,139
38.5,103
38.56,123
38.62,109
38.68,106
38.74,121
38.8,100
38.86,104
38.92,120
38.98,115
39.04,130
39.1,124
39.16,116
39.22,117
39.28,132
39.34,111
39.4,134
39.46,124
39.52,125
39.58,137
39.64,104
39.7,126
39.76,136
39.82,104
39.88,123
39.94,132
40,141
40.06,142
40.12,131
40.18,101
40.24,125
40.3,121
40.36,149
40.42,134
40.48,127
40.54,136
40.6,128
40.66,130
40.72,139
40.78,137
40.84,116
40.9,102
40.96,137
41.02,140
41.08,149
41.14,137
41.2,151
41.26,130
41.32,155
41.38,151
41.44,163
41.5,172
41.56,180
41.62,185
41.68,203
41.74,234
41.8,240
41.86,302
41.92,332
41.98,385
42.04,476
42.1,470
42.16,456
42.22,455
42.28,418
42.34,356
42.4,301
42.46,281
42.52,217
42.58,212
42.64,181
42.7,172
42.76,174
42.82,154
42.88,168
42.94,174
43,153
43.06,139
43.12,139
43.18,110
43.24,123
43.3,135
43.36,155
43.42,148
43.48,117
43.54,150
43.6,154
43.66,134
43.72,130
43.78,144
43.84,148
43.9,125
43.96,138
44.02,163
44.08,139
44.14,144
44.2,138
44.26,135
44.32,145
44.38,131
44.44,137
44.5,142
44.56,151
44.62,159
44.68,165
44.74,179
44.8,205
44.86,220
44.92,206
44.98,205
45.04,207
45.1,272
45.16,316
45.22,404
45.28,415
45.34,408
45.4,391
45.46,362
45.52,407
45.58,396
45.64,357
45.7,356
45.76,358
45.82,334
45.88,325
45.94,298
46,295
46.06,253
46.12,245
46.18,246
46.24,220
46.3,238
46.36,246
46.42,262
46.48,253
46.54,259
46.6,327
46.66,371
46.72,369
46.78,388
46.84,393
46.9,378
46.96,347
47.02,308
47.08,294
47.14,248
47.2,212
47.26,201
47.32,208
47.38,158
47.44,138
47.5,142
47.56,120
47.62,126
47.68,122
47.74,116
47.8,105
47.86,108
47.92,98
47.98,130
48.04,94
48.1,98
48.16,97
48.22,98
48.28,84
48.34,91
48.4,106
48.46,118
48.52,86
48.58,93
48.64,105
48.7,101
48.76,86
48.82,96
48.88,87
48.94,76
49,79
49.06,104
49.12,105
49.18,83
49.24,79
49.3,91
49.36,65
49.42,75
49.48,76
49.54,76
49.6,75
49.66,61
49.72,77
49.78,78
49.84,74
49.9,78
49.96,73
50.02,96
50.08,86
50.14,71
50.2,82
50.26,80
50.32,71
50.38,77
50.44,74
50.5,82
50.56,60
50.62,70
50.68,78
50.74,88
50.8,71
50.86,66
50.92,69
50.98,69
51.04,76
51.1,63
51.16,86
51.22,61
51.28,72
51.34,73
51.4,83
51.46,76
51.52,67
51.58,75
51.64,69
51.7,54
51.76,73
51.82,50
51.88,70
51.94,79
52,72
52.06,69
52.12,57
52.18,57
52.24,73
52.3,76
52.36,73
52.42,75
52.48,62
52.54,78
52.6,65
52.66,70
52.72,65
52.78,80
52.84,69
52.9,67
52.96,60
53.02,65
53.08,65
53.14,73
53.2,55
53.26,56
53.32,62
53.38,66
53.44,72
53.5,63
53.56,54
53.62,65
53.68,70
53.74,82
53.8,80
53.86,71
53.92,79
53.98,72
54.04,80
54.1,72
54.16,79
54.22,59
54.28,73
54.34,67
54.4,78
54.46,73
54.52,90
54.58,90
54.64,66
54.7,82
54.76,68
54.82,76
54.88,98
54.94,98
55,93
55.06,116
55.12,99
55.18,114
55.24,107
55.3,114
55.36,124
55.42,109
55.48,121
55.54,142
55.6,149
55.66,131
55.72,131
55.78,171
55.84,174
55.9,201
55.96,194
56.02,195
56.08,190
56.14,176
56.2,169
56.26,135
56.32,120
56.38,116
56.44,111
56.5,110
56.56,100
56.62,91
56.68,98
56.74,81
56.8,74
56.86,75
56.92,83
56.98,74
57.04,74
57.1,69
57.16,77
57.22,92
57.28,75
57.34,67
57.4,74
57.46,57
57.52,74
57.58,78
57.64,75
57.7,77
57.76,82
57.82,91
57.88,60
57.94,84
58,93
58.06,108
58.12,95
58.18,87
58.24,91
58.3,99
58.36,111
58.42,115
58.48,113
58.54,147
58.6,128
58.66,142
58.72,140
58.78,153
58.84,176
58.9,174
58.96,181
59.02,180
59.08,181
59.14,176
59.2,148
59.26,163
59.32,139
59.38,144
59.44,112
59.5,121
59.56,112
59.62,109
59.68,86
59.74,100
59.8,86
59.86,79
59.92,74
59.98,84
60.04,81
60.1,71
60.16,81
60.22,84
60.28,102
60.34,80
60.4,76
60.46,89
60.52,88
60.58,71
60.64,80
60.7,71
60.76,79
60.82,61
60.88,82
60.94,78
61,88
61.06,80
61.12,80
61.18,80
61.24,74
61.3,80
61.36,69
61.42,83
61.48,74
61.54,82
61.6,83
61.66,91
61.72,87
61.78,86
61.84,89
61.9,74
61.96,81
62.02,110
62.08,83
62.14,102
62.2,87
62.26,77
62.32,88
62.38,99
62.44,91
62.5,81
62.56,88
62.62,118
62.68,89
62.74,95
62.8,95
62.86,88
62.92,102
62.98,103
63.04,94
63.1,116
63.16,104
63.22,109
63.28,107
63.34,92
63.4,109
63.46,102
63.52,83
63.58,77
63.64,89
63.7,89
63.76,85
63.82,69
63.88,88
63.94,72
64,71
64.06,76
64.12,79
64.18,67
64.24,61
64.3,71
64.36,70
64.42,73
64.48,67
64.54,76
64.6,69
64.66,79
64.72,65
64.78,64
64.84,58
64.9,85
64.96,64
65.02,86
65.08,85
65.14,89
65.2,70
65.26,67
65.32,96
65.38,74
65.44,73
65.5,56
65.56,73
65.62,78
65.68,74
65.74,83
65.8,65
65.86,67
65.92,73
65.98,70
66.04,54
66.1,80
66.16,74
66.22,72
66.28,74
66.34,83
66.4,71
66.46,73
66.52,85
66.58,76
66.64,68
66.7,95
66.76,77
66.82,73
66.88,88
66.94,106
67,92
67.06,91
67.12,99
67.18,81
67.24,93
67.3,75
67.36,79
67.42,86
67.48,82
67.54,87
67.6,93
67.66,69
67.72,72
67.78,90
67.84,82
67.9,85
67.96,78
68.02,79
68.08,66
68.14,79
68.2,77
68.26,64
68.32,69
68.38,76
68.44,79
68.5,88
68.56,79
68.62,77
68.68,64
68.74,88
68.8,75
68.86,84
68.92,77
68.98,74
69.04,79
69.1,84
69.16,85
69.22,95
69.28,92
69.34,84
69.4,85
69.46,90
69.52,90
69.58,93
69.64,86
69.7,99
69.76,91
69.82,104
69.88,98
69.94,102
70,112
,