File: Fig 2/Fig2_XRD_balcite_9mo.csv
Bragg_angle,Intensity
\circ,a.u.
5,8045
5.05,7870
5.1,7795
5.15,7726
5.2,7734
5.25,7605
5.3,7532
5.35,7444
5.4,7437
5.45,7303
5.5,7172
5.55,7174
5.6,6957
5.65,7057
5.7,7052
5.75,7020
5.8,6967
5.85,6882
5.9,6769
5.95,6621
6,6710
6.05,6545
6.1,6667
6.15,6534
6.2,6665
6.25,6540
6.3,6524
6.35,6413
6.4,6318
6.45,6440
6.5,6447
6.55,6171
6.6,6239
6.65,6196
6.7,6077
6.75,6158
6.8,6027
6.85,6014
6.9,6114
6.95,6050
7,5868
7.05,5807
7.1,5881
7.15,5858
7.2,5891
7.25,5686
7.3,5672
7.35,5645
7.4,5649
7.45,5713
7.5,5600
7.55,5592
7.6,5428
7.65,5440
7.7,5480
7.75,5413
7.8,5430
7.85,5298
7.9,5488
7.95,5356
8,5276
8.05,5232
8.1,5315
8.15,5292
8.2,5127
8.25,5294
8.3,5319
8.35,5061
8.4,5139
8.45,5085
8.5,5176
8.55,4992
8.6,5062
8.65,5025
8.7,4948
8.75,5015
8.8,4874
8.85,4946
8.9,4923
8.95,5038
9,4975
9.05,4812
9.1,4810
9.15,4857
9.2,4843
9.25,4841
9.3,4824
9.35,4801
9.4,4545
9.45,4653
9.5,4841
9.55,4658
9.6,4800
9.65,4656
9.7,4722
9.75,4677
9.8,4665
9.85,4697
9.9,4678
9.95,4652
10,4557
10.05,4613
10.1,4616
10.15,4608
10.2,4572
10.25,4552
10.3,4561
10.35,4434
10.4,4563
10.45,4406
10.5,4556
10.55,4565
10.6,4420
10.65,4463
10.7,4389
10.75,4282
10.8,4363
10.85,4487
10.9,4372
10.95,4393
11,4425
11.05,4324
11.1,4413
11.15,4299
11.2,4244
11.25,4369
11.3,4337
11.35,4193
11.4,4248
11.45,4194
11.5,4366
11.55,4321
11.6,4238
11.65,4303
11.7,4158
11.75,4199
11.8,4249
11.85,4168
11.9,4195
11.95,3993
12,4171
12.05,4138
12.1,4082
12.15,4122
12.2,4087
12.25,4106
12.3,4032
12.35,3861
12.4,3855
12.45,3956
12.5,3880
12.55,3860
12.6,3877
12.65,3947
12.7,3898
12.75,3973
12.8,3798
12.85,3915
12.9,3724
12.95,3846
13,3712
13.05,3654
13.1,3642
13.15,3674
13.2,3734
13.25,3573
13.3,3587
13.35,3580
13.4,3632
13.45,3645
13.5,3558
13.55,3618
13.6,3564
13.65,3523
13.7,3530
13.75,3511
13.8,3408
13.85,3379
13.9,3499
13.95,3369
14,3505
14.05,3344
14.1,3401
14.15,3335
14.2,3315
14.25,3367
14.3,3327
14.35,3337
14.4,3333
14.45,3217
14.5,3276
14.55,3277
14.6,3104
14.65,3276
14.7,3182
14.75,3108
14.8,3182
14.85,3226
14.9,3187
14.95,3171
15,3082
15.05,3067
15.1,3154
15.15,3045
15.2,3118
15.25,3056
15.3,2918
15.35,3052
15.4,2925
15.45,2866
15.5,3014
15.55,2932
15.6,2861
15.65,2846
15.7,2855
15.75,2945
15.8,2921
15.85,2929
15.9,2864
15.95,2802
16,2705
16.05,2977
16.1,2799
16.15,2792
16.2,2809
16.25,2819
16.3,2725
16.35,2849
16.4,2781
16.45,2833
16.5,2706
16.55,2716
16.6,2635
16.65,2720
16.7,2761
16.75,2597
16.8,2687
16.85,2645
16.9,2631
16.95,2700
17,2558
17.05,2698
17.1,2561
17.15,2641
17.2,2536
17.25,2597
17.3,2482
17.35,2592
17.4,2503
17.45,2406
17.5,2539
17.55,2485
17.6,2551
17.65,2349
17.7,2482
17.75,2415
17.8,2414
17.85,2387
17.9,2481
17.95,2428
18,2434
18.05,2336
18.1,2380
18.15,2372
18.2,2369
18.25,2435
18.3,2355
18.35,2339
18.4,2346
18.45,2358
18.5,2344
18.55,2360
18.6,2287
18.65,2368
18.7,2339
18.75,2233
18.8,2297
18.85,2296
18.9,2331
18.95,2350
19,2249
19.05,2244
19.1,2353
19.15,2314
19.2,2362
19.25,2383
19.3,2437
19.35,2577
19.4,2744
19.45,3038
19.5,3277
19.55,3745
19.6,3707
19.65,3196
19.7,2820
19.75,2627
19.8,2679
19.85,2600
19.9,2646
19.95,2840
20,2864
20.05,2817
20.1,2492
20.15,2230
20.2,2299
20.25,2186
20.3,2101
20.35,2194
20.4,2096
20.45,2089
20.5,2069
20.55,2130
20.6,2059
20.65,2123
20.7,2032
20.75,2121
20.8,2043
20.85,2055
20.9,1913
20.95,2006
21,1974
21.05,1982
21.1,2021
21.15,2004
21.2,1970
21.25,1945
21.3,1952
21.35,1914
21.4,1950
21.45,1952
21.5,1922
21.55,2093
21.6,2065
21.65,2070
21.7,2110
21.75,2090
21.8,1987
21.85,2016
21.9,1954
21.95,2016
22,2058
22.05,2053
22.1,1936
22.15,2008
22.2,2044
22.25,2159
22.3,2282
22.35,2433
22.4,2674
22.45,2512
22.5,2475
22.55,2188
22.6,2254
22.65,2042
22.7,2097
22.75,2051
22.8,2073
22.85,2151
22.9,2440
22.95,2601
23,2295
23.05,2005
23.1,1999
23.15,1917
23.2,1962
23.25,2045
23.3,1970
23.35,1988
23.4,2144
23.45,2187
23.5,2289
23.55,2409
23.6,2550
23.65,2734
23.7,3145
23.75,3846
23.8,4659
23.85,6159
23.9,8758
23.95,12556
24,17031
24.05,18897
24.1,17306
24.15,14390
24.2,11296
24.25,9681
24.3,9817
24.35,11288
24.4,12837
24.45,11863
24.5,8056
24.55,4584
24.6,2898
24.65,2347
24.7,2115
24.75,1960
24.8,1857
24.85,1747
24.9,1782
24.95,1690
25,1683
25.05,1630
25.1,1586
25.15,1644
25.2,1591
25.25,1544
25.3,1540
25.35,1536
25.4,1467
25.45,1459
25.5,1455
25.55,1499
25.6,1463
25.65,1559
25.7,1497
25.75,1509
25.8,1445
25.85,1407
25.9,1402
25.95,1426
26,1403
26.05,1418
26.1,1320
26.15,1397
26.2,1334
26.25,1368
26.3,1415
26.35,1392
26.4,1360
26.45,1325
26.5,1373
26.55,1349
26.6,1350
26.65,1347
26.7,1301
26.75,1319
26.8,1239
26.85,1286
26.9,1263
26.95,1323
27,1320
27.05,1291
27.1,1294
27.15,1302
27.2,1280
27.25,1327
27.3,1211
27.35,1345
27.4,1267
27.45,1331
27.5,1378
27.55,1437
27.6,1515
27.65,1668
27.7,1991
27.75,2250
27.8,2708
27.85,2872
27.9,2966
27.95,3028
28,2815
28.05,2444
28.1,2203
28.15,2089
28.2,1903
28.25,2007
28.3,2083
28.35,2359
28.4,2609
28.45,2929
28.5,3162
28.55,3047
28.6,2891
28.65,2594
28.7,2156
28.75,1885
28.8,1741
28.85,1735
28.9,1670
28.95,1815
29,2099
29.05,2804
29.1,3974
29.15,6950
29.2,8818
29.25,7214
29.3,4585
29.35,2622
29.4,2010
29.45,1754
29.5,1689
29.55,1734
29.6,1810
29.65,1898
29.7,1879
29.75,1776
29.8,1602
29.85,1505
29.9,1400
29.95,1331
30,1276
30.05,1235
30.1,1213
30.15,1163
30.2,1142
30.25,1182
30.3,1172
30.35,1129
30.4,1137
30.45,1054
30.5,1094
30.55,1115
30.6,1114
30.65,1137
30.7,1125
30.75,1122
30.8,1089
30.85,1095
30.9,1211
30.95,1237
31,1390
31.05,1616
31.1,1866
31.15,1961
31.2,1866
31.25,1667
31.3,1537
31.35,1346
31.4,1229
31.45,1223
31.5,1255
31.55,1220
31.6,1227
31.65,1189
31.7,1211
31.75,1203
31.8,1148
31.85,1206
31.9,1108
31.95,1128
32,1089
32.05,1038
32.1,1021
32.15,1082
32.2,1096
32.25,1087
32.3,1074
32.35,1044
32.4,1068
32.45,1139
32.5,1134
32.55,1117
32.6,1175
32.65,1202
32.7,1227
32.75,1170
32.8,1177
32.85,1093
32.9,1087
32.95,1110
33,1096
33.05,1103
33.1,1129
33.15,1064
33.2,1050
33.25,1180
33.3,1185
33.35,1269
33.4,1301
33.45,1359
33.5,1318
33.55,1415
33.6,1410
33.65,1502
33.7,1660
33.75,1778
33.8,2076
33.85,2372
33.9,2694
33.95,2820
34,2905
34.05,2844
34.1,3106
34.15,3454
34.2,3960
34.25,4205
34.3,4446
34.35,4650
34.4,4634
34.45,4727
34.5,4925
34.55,4885
34.6,5013
34.65,5136
34.7,5475
34.75,5787
34.8,5603
34.85,4669
34.9,3441
34.95,2466
35,1804
35.05,1594
35.1,1446
35.15,1380
35.2,1334
35.25,1273
35.3,1324
35.35,1238
35.4,1245
35.45,1131
35.5,1158
35.55,1112
35.6,1139
35.65,1067
35.7,962
35.75,1089
35.8,1161
35.85,1300
35.9,1182
35.95,1044
36,916
36.05,839
36.1,833
36.15,854
36.2,818
36.25,823
36.3,823
36.35,772
36.4,798
36.45,787
36.5,753
36.55,804
36.6,791
36.65,765
36.7,750
36.75,761
36.8,799
36.85,775
36.9,806
36.95,776
37,756
37.05,752
37.1,769
37.15,787
37.2,778
37.25,751
37.3,815
37.35,778
37.4,748
37.45,808
37.5,765
37.55,734
37.6,776
37.65,776
37.7,794
37.75,762
37.8,799
37.85,839
37.9,799
37.95,807
38,841
38.05,806
38.1,826
38.15,857
38.2,776
38.25,775
38.3,816
38.35,801
38.4,815
38.45,808
38.5,731
38.55,759
38.6,773
38.65,718
38.7,800
38.75,744
38.8,794
38.85,801
38.9,761
38.95,835
39,772
39.05,879
39.1,848
39.15,943
39.2,1067
39.25,1112
39.3,1065
39.35,1008
39.4,1039
39.45,989
39.5,1091
39.55,1196
39.6,1269
39.65,1441
39.7,1510
39.75,1583
39.8,1393
39.85,1299
39.9,1148
39.95,1070
40,916
40.05,951
40.1,908
40.15,794
40.2,810
40.25,832
40.3,852
40.35,859
40.4,862
40.45,896
40.5,1012
40.55,981
40.6,1046
40.65,1138
40.7,1084
40.75,1003
40.8,1088
40.85,950
40.9,888
40.95,840
41,822
41.05,808
41.1,818
41.15,778
41.2,839
41.25,867
41.3,812
41.35,803
41.4,871
41.45,935
41.5,905
41.55,981
41.6,1009
41.65,1052
41.7,1106
41.75,1188
41.8,1291
41.85,1491
41.9,1650
41.95,1905
42,2140
42.05,2543
42.1,2993
42.15,3559
42.2,4113
42.25,4153
42.3,4182
42.35,3765
42.4,3217
42.45,2808
42.5,2350
42.55,1988
42.6,1774
42.65,1635
42.7,1610
42.75,1579
42.8,1540
42.85,1643
42.9,1805
42.95,2105
43,2328
43.05,2378
43.1,2758
43.15,2815
43.2,2898
43.25,2639
43.3,2153
43.35,1778
43.4,1351
43.45,1111
43.5,963
43.55,926
43.6,912
43.65,867
43.7,853
43.75,911
43.8,860
43.85,861
43.9,895
43.95,894
44,939
44.05,966
44.1,1039
44.15,1157
44.2,1243
44.25,1351
44.3,1515
44.35,1583
44.4,1798
44.45,1795
44.5,1897
44.55,1757
44.6,1799
44.65,1743
44.7,1633
44.75,1699
44.8,1745
44.85,1802
44.9,2046
44.95,2413
45,2840
45.05,3351
45.1,3656
45.15,3883
45.2,3720
45.25,3432
45.3,2804
45.35,2298
45.4,1783
45.45,1475
45.5,1321
45.55,1317
45.6,1192
45.65,1150
45.7,1137
45.75,1118
45.8,1133
45.85,1022
45.9,1019
45.95,951
46,1002
46.05,1001
46.1,1005
46.15,957
46.2,953
46.25,965
46.3,1017
46.35,1015
46.4,1060
46.45,1062
46.5,1078
46.55,1163
46.6,1228
46.65,1370
46.7,1538
46.75,1781
46.8,2172
46.85,2462
46.9,3048
46.95,3636
47,4338
47.05,4958
47.1,5015
47.15,4999
47.2,4807
47.25,4258
47.3,3850
47.35,3375
47.4,3005
47.45,2588
47.5,2252
47.55,1890
47.6,1631
47.65,1439
47.7,1255
47.75,1118
47.8,1036
47.85,968
47.9,976
47.95,941
48,909
48.05,1037
48.1,1273
48.15,1469
48.2,1492
48.25,1448
48.3,1274
48.35,1118
48.4,970
48.45,878
48.5,783
48.55,715
48.6,691
48.65,677
48.7,639
48.75,658
48.8,590
48.85,613
48.9,699
48.95,695
49,737
49.05,747
49.1,766
49.15,840
49.2,843
49.25,843
49.3,748
49.35,783
49.4,741
49.45,681
49.5,682
49.55,681
49.6,609
49.65,617
49.7,620
49.75,572
49.8,630
49.85,602
49.9,683
49.95,672
50,762
50.05,743
50.1,689
50.15,705
50.2,658
50.25,626
50.3,561
50.35,504
50.4,520
50.45,502
50.5,477
50.55,496
50.6,519
50.65,473
50.7,506
50.75,447
50.8,475
50.85,490
50.9,482
50.95,423
51,447
51.05,477
51.1,472
51.15,425
51.2,403
51.25,429
51.3,456
51.35,460
51.4,455
51.45,432
51.5,447
51.55,410
51.6,447
51.65,418
51.7,430
51.75,450
51.8,416
51.85,458
51.9,424
51.95,431
52,404
52.05,431
52.1,468
52.15,401
52.2,447
52.25,456
52.3,423
52.35,450
52.4,438
52.45,440
52.5,447
52.55,466
52.6,514
52.65,495
52.7,485
52.75,514
52.8,541
52.85,540
52.9,564
52.95,578
53,604
53.05,544
53.1,573
53.15,554
53.2,517
53.25,510
53.3,538
53.35,557
53.4,525
53.45,513
53.5,506
53.55,555
53.6,578
53.65,605
53.7,541
53.75,605
53.8,628
53.85,618
53.9,665
53.95,672
54,629
54.05,656
54.1,662
54.15,657
54.2,602
54.25,627
54.3,636
54.35,698
54.4,641
54.45,702
54.5,678
54.55,814
54.6,818
54.65,806
54.7,833
54.75,884
54.8,954
54.85,983
54.9,944
54.95,998
55,993
55.05,989
55.1,1023
55.15,948
55.2,971
55.25,920
55.3,831
55.35,777
55.4,784
55.45,823
55.5,827
55.55,815
55.6,859
55.65,796
55.7,972
55.75,993
55.8,1046
55.85,1145
55.9,1232
55.95,1329
56,1473
56.05,1442
56.1,1401
56.15,1324
56.2,1311
56.25,1178
56.3,1184
56.35,1084
56.4,1097
56.45,1164
56.5,1232
56.55,1207
56.6,1368
56.65,1281
56.7,1238
56.75,1056
56.8,963
56.85,841
56.9,744
56.95,665
57,649
57.05,645
57.1,648
57.15,700
57.2,659
57.25,751
57.3,716
57.35,712
57.4,693
57.45,757
57.5,669
57.55,675
57.6,686
57.65,655
57.7,652
57.75,609
57.8,610
57.85,552
57.9,559
57.95,567
58,564
58.05,501
58.1,486
58.15,515
58.2,489
58.25,502
58.3,451
58.35,446
58.4,466
58.45,462
58.5,468
58.55,522
58.6,474
58.65,528
58.7,490
58.75,505
58.8,491
58.85,526
58.9,566
58.95,607
59,554
59.05,598
59.1,594
59.15,669
59.2,675
59.25,699
59.3,726
59.35,751
59.4,743
59.45,754
59.5,754
59.55,703
59.6,726
59.65,755
59.7,707
59.75,661
59.8,643
59.85,652
59.9,648
59.95,620
60,618
60.05,607
60.1,683
60.15,708
60.2,749
60.25,705
60.3,803
60.35,761
60.4,731
60.45,796
60.5,752
60.55,774
60.6,731
60.65,704
60.7,719
60.75,748
60.8,771
60.85,824
60.9,833
60.95,851
61,897
61.05,864
61.1,915
61.15,989
61.2,965
61.25,954
61.3,920
61.35,983
61.4,969
61.45,964
61.5,946
61.55,974
61.6,930
61.65,907
61.7,916
61.75,885
61.8,899
61.85,817
61.9,859
61.95,795
62,776
62.05,757
62.1,707
62.15,706
62.2,682
62.25,770
62.3,742
62.35,745
62.4,738
62.45,700
62.5,707
62.55,680
62.6,635
62.65,658
62.7,687
62.75,676
62.8,645
62.85,659
62.9,632
62.95,706
63,611
63.05,621
63.1,603
63.15,516
63.2,515
63.25,499
63.3,519
63.35,488
63.4,518
63.45,483
63.5,493
63.55,484
63.6,480
63.65,456
63.7,503
63.75,478
63.8,473
63.85,488
63.9,463
63.95,517
64,531
64.05,492
64.1,539
64.15,563
64.2,542
64.25,533
64.3,591
64.35,626
64.4,625
64.45,624
64.5,681
64.55,664
64.6,678
64.65,730
64.7,789
64.75,850
64.8,945
64.85,1046
64.9,1088
64.95,1158
65,1231
65.05,1305
65.1,1286
65.15,1124
65.2,1154
65.25,1059
65.3,1043
65.35,975
65.4,869
65.45,829
65.5,796
65.55,751
65.6,694
65.65,646
65.7,622
65.75,571
65.8,552
65.85,509
65.9,515
65.95,482
66,495
66.05,460
66.1,481
66.15,439
66.2,429
66.25,429
66.3,417
66.35,449
66.4,461
66.45,394
66.5,466
66.55,409
66.6,413
66.65,423
66.7,392
66.75,418
66.8,401
66.85,416
66.9,372
66.95,442
67,458
67.05,431
67.1,423
67.15,424
67.2,387
67.25,393
67.3,443
67.35,445
67.4,445
67.45,451
67.5,426
67.55,453
67.6,482
67.65,459
67.7,466
67.75,489
67.8,470
67.85,452
67.9,525
67.95,551
68,593
68.05,609
68.1,629
68.15,670
68.2,668
68.25,787
68.3,816
68.35,909
68.4,904
68.45,984
68.5,1022
68.55,975
68.6,1073
68.65,1028
68.7,1092
68.75,1008
68.8,1080
68.85,1096
68.9,1011
68.95,1027
69,1061
69.05,1062
69.1,965
69.15,1020
69.2,990
69.25,885
69.3,922
69.35,850
69.4,886
69.45,831
69.5,839
69.55,853
69.6,832
69.65,870
69.7,900
69.75,881
69.8,947
69.85,904
69.9,933
69.95,973
70,1039
70.05,1003
70.1,1048
70.15,1064
70.2,1014
70.25,1037
70.3,912
70.35,886
70.4,889
70.45,848
70.5,831
70.55,833
70.6,780
70.65,817
70.7,881
70.75,892
70.8,983
70.85,949
70.9,1001
70.95,970
71,944
71.05,937
71.1,1013
71.15,952
71.2,1051
71.25,1048
71.3,1068
71.35,1013
71.4,962
71.45,965
71.5,942
71.55,920
71.6,832
71.65,835
71.7,732
71.75,685
71.8,619
71.85,628
71.9,589
71.95,546
72,554
72.05,519
72.1,497
72.15,547
72.2,523
72.25,572
72.3,552
72.35,576
72.4,550
72.45,545
72.5,571
72.55,533
72.6,548
72.65,549
72.7,570
72.75,588
72.8,562
72.85,532
72.9,563
72.95,489
73,531
73.05,555
73.1,567
73.15,595
73.2,590
73.25,659
73.3,604
73.35,612
73.4,635
73.45,633
73.5,628
73.55,595
73.6,534
73.65,557
73.7,531
73.75,484
73.8,428
73.85,457
73.9,418
73.95,415
74,423
74.05,410
74.1,411
74.15,392
74.2,403
74.25,380
74.3,367
74.35,402
74.4,399
74.45,389
74.5,358
74.55,373
74.6,434
74.65,387
74.7,407
74.75,405
74.8,393
74.85,378
74.9,400
74.95,366
75,379