File: Fig 2/Fig2_XRD_balcite_3mo.csv
Bragg_angle,Intensity
\circ,a.u.
10,90
10.06,91
10.12,87
10.18,84
10.24,83
10.3,88
10.36,87
10.42,79
10.48,74
10.54,80
10.6,77
10.66,77
10.72,67
10.78,72
10.84,77
10.9,78
10.96,65
11.02,62
11.08,64
11.14,68
11.2,61
11.26,78
11.32,74
11.38,70
11.44,71
11.5,72
11.56,57
11.62,60
11.68,73
11.74,67
11.8,71
11.86,65
11.92,59
11.98,62
12.04,82
12.1,72
12.16,68
12.22,76
12.28,71
12.34,73
12.4,59
12.46,80
12.52,76
12.58,61
12.64,96
12.7,65
12.76,71
12.82,80
12.88,69
12.94,60
13,66
13.06,72
13.12,76
13.18,73
13.24,87
13.3,70
13.36,76
13.42,59
13.48,68
13.54,69
13.6,73
13.66,79
13.72,73
13.78,86
13.84,55
13.9,68
13.96,71
14.02,56
14.08,77
14.14,67
14.2,63
14.26,79
14.32,77
14.38,83
14.44,61
14.5,71
14.56,69
14.62,65
14.68,69
14.74,68
14.8,65
14.86,77
14.92,72
14.98,74
15.04,79
15.1,77
15.16,69
15.22,60
15.28,78
15.34,64
15.4,58
15.46,74
15.52,63
15.58,62
15.64,75
15.7,54
15.76,53
15.82,67
15.88,66
15.94,67
16,82
16.06,58
16.12,65
16.18,72
16.24,51
16.3,66
16.36,54
16.42,57
16.48,56
16.54,67
16.6,57
16.66,58
16.72,63
16.78,74
16.84,49
16.9,62
16.96,72
17.02,64
17.08,70
17.14,62
17.2,54
17.26,65
17.32,55
17.38,63
17.44,60
17.5,70
17.56,54
17.62,62
17.68,79
17.74,63
17.8,81
17.86,55
17.92,66
17.98,61
18.04,46
18.1,61
18.16,60
18.22,61
18.28,52
18.34,68
18.4,56
18.46,61
18.52,53
18.58,62
18.64,53
18.7,54
18.76,52
18.82,62
18.88,56
18.94,58
19,71
19.06,67
19.12,59
19.18,50
19.24,64
19.3,60
19.36,76
19.42,65
19.48,87
19.54,118
19.6,129
19.66,133
19.72,88
19.78,70
19.84,92
19.9,67
19.96,94
20.02,122
20.08,94
20.14,78
20.2,77
20.26,49
20.32,66
20.38,65
20.44,64
20.5,57
20.56,51
20.62,66
20.68,58
20.74,62
20.8,58
20.86,65
20.92,55
20.98,59
21.04,73
21.1,64
21.16,73
21.22,58
21.28,74
21.34,75
21.4,57
21.46,61
21.52,56
21.58,57
21.64,85
21.7,62
21.76,81
21.82,82
21.88,78
21.94,88
22,66
22.06,88
22.12,103
22.18,143
22.24,227
22.3,438
22.36,672
22.42,652
22.48,480
22.54,279
22.6,208
22.66,145
22.72,123
22.78,106
22.84,114
22.9,118
22.96,103
23.02,95
23.08,79
23.14,82
23.2,68
23.26,76
23.32,84
23.38,74
23.44,90
23.5,82
23.56,74
23.62,97
23.68,113
23.74,109
23.8,128
23.86,158
23.92,222
23.98,395
24.04,657
24.1,784
24.16,740
24.22,495
24.28,383
24.34,385
24.4,552
24.46,555
24.52,401
24.58,209
24.64,124
24.7,89
24.76,87
24.82,85
24.88,76
24.94,58
25,64
25.06,66
25.12,61
25.18,48
25.24,56
25.3,73
25.36,62
25.42,54
25.48,63
25.54,69
25.6,77
25.66,54
25.72,52
25.78,46
25.84,41
25.9,64
25.96,58
26.02,63
26.08,50
26.14,51
26.2,62
26.26,51
26.32,59
26.38,53
26.44,46
26.5,50
26.56,53
26.62,56
26.68,57
26.74,46
26.8,58
26.86,46
26.92,64
26.98,52
27.04,57
27.1,45
27.16,55
27.22,50
27.28,61
27.34,61
27.4,72
27.46,64
27.52,72
27.58,57
27.64,74
27.7,75
27.76,103
27.82,113
27.88,161
27.94,183
28,204
28.06,244
28.12,381
28.18,704
28.24,1103
28.3,1157
28.36,983
28.42,668
28.48,482
28.54,406
28.6,359
28.66,276
28.72,207
28.78,157
28.84,146
28.9,111
28.96,106
29.02,130
29.08,142
29.14,291
29.2,436
29.26,351
29.32,195
29.38,93
29.44,76
29.5,62
29.56,81
29.62,81
29.68,96
29.74,101
29.8,105
29.86,74
29.92,76
29.98,72
30.04,53
30.1,65
30.16,49
30.22,56
30.28,41
30.34,58
30.4,47
30.46,48
30.52,47
30.58,41
30.64,59
30.7,52
30.76,41
30.82,63
30.88,63
30.94,43
31,52
31.06,63
31.12,68
31.18,57
31.24,67
31.3,50
31.36,46
31.42,50
31.48,50
31.54,40
31.6,36
31.66,52
31.72,47
31.78,61
31.84,53
31.9,46
31.96,61
32.02,48
32.08,47
32.14,50
32.2,52
32.26,45
32.32,53
32.38,45
32.44,46
32.5,57
32.56,47
32.62,68
32.68,53
32.74,57
32.8,58
32.86,69
32.92,53
32.98,54
33.04,55
33.1,53
33.16,56
33.22,73
33.28,59
33.34,45
33.4,70
33.46,69
33.52,88
33.58,74
33.64,57
33.7,72
33.76,68
33.82,84
33.88,102
33.94,116
34,111
34.06,140
34.12,138
34.18,155
34.24,175
34.3,164
34.36,184
34.42,177
34.48,232
34.54,219
34.6,205
34.66,246
34.72,234
34.78,254
34.84,293
34.9,243
34.96,238
35.02,270
35.08,364
35.14,396
35.2,286
35.26,219
35.32,163
35.38,133
35.44,105
35.5,93
35.56,96
35.62,91
35.68,70
35.74,85
35.8,76
35.86,96
35.92,92
35.98,79
36.04,65
36.1,55
36.16,55
36.22,54
36.28,55
36.34,55
36.4,58
36.46,52
36.52,65
36.58,62
36.64,33
36.7,52
36.76,55
36.82,59
36.88,55
36.94,56
37,58
37.06,62
37.12,46
37.18,47
37.24,45
37.3,42
37.36,46
37.42,52
37.48,49
37.54,49
37.6,53
37.66,68
37.72,57
37.78,45
37.84,56
37.9,54
37.96,50
38.02,58
38.08,60
38.14,67
38.2,47
38.26,67
38.32,40
38.38,59
38.44,54
38.5,53
38.56,54
38.62,50
38.68,54
38.74,48
38.8,50
38.86,40
38.92,56
38.98,63
39.04,69
39.1,64
39.16,62
39.22,69
39.28,60
39.34,63
39.4,69
39.46,63
39.52,58
39.58,37
39.64,76
39.7,68
39.76,94
39.82,75
39.88,99
39.94,76
40,52
40.06,54
40.12,54
40.18,53
40.24,59
40.3,60
40.36,45
40.42,55
40.48,59
40.54,50
40.6,56
40.66,62
40.72,80
40.78,73
40.84,55
40.9,62
40.96,72
41.02,55
41.08,64
41.14,63
41.2,65
41.26,63
41.32,69
41.38,71
41.44,68
41.5,70
41.56,82
41.62,74
41.68,94
41.74,116
41.8,110
41.86,158
41.92,182
41.98,292
42.04,357
42.1,346
42.16,303
42.22,293
42.28,246
42.34,241
42.4,226
42.46,197
42.52,154
42.58,108
42.64,120
42.7,91
42.76,95
42.82,91
42.88,121
42.94,104
43,126
43.06,130
43.12,137
43.18,121
43.24,172
43.3,129
43.36,103
43.42,82
43.48,79
43.54,72
43.6,66
43.66,69
43.72,60
43.78,62
43.84,69
43.9,65
43.96,66
44.02,66
44.08,61
44.14,63
44.2,76
44.26,77
44.32,86
44.38,92
44.44,97
44.5,106
44.56,118
44.62,92
44.68,117
44.74,106
44.8,102
44.86,127
44.92,129
44.98,156
45.04,188
45.1,270
45.16,292
45.22,274
45.28,256
45.34,232
45.4,211
45.46,184
45.52,159
45.58,186
45.64,189
45.7,202
45.76,162
45.82,154
45.88,142
45.94,128
46,103
46.06,112
46.12,90
46.18,109
46.24,97
46.3,92
46.36,81
46.42,107
46.48,121
46.54,155
46.6,226
46.66,246
46.72,256
46.78,235
46.84,182
46.9,192
46.96,192
47.02,236
47.08,246
47.14,231
47.2,204
47.26,225
47.32,187
47.38,169
47.44,136
47.5,140
47.56,111
47.62,100
47.68,92
47.74,84
47.8,81
47.86,81
47.92,64
47.98,61
48.04,63
48.1,73
48.16,81
48.22,84
48.28,74
48.34,83
48.4,68
48.46,57
48.52,57
48.58,41
48.64,47
48.7,53
48.76,49
48.82,46
48.88,43
48.94,42
49,47
49.06,41
49.12,53
49.18,42
49.24,37
49.3,46
49.36,49
49.42,52
49.48,36
49.54,42
49.6,49
49.66,49
49.72,41
49.78,45
49.84,35
49.9,52
49.96,45
50.02,45
50.08,48
50.14,38
50.2,52
50.26,41
50.32,47
50.38,25
50.44,43
50.5,40
50.56,38
50.62,34
50.68,34
50.74,42
50.8,36
50.86,33
50.92,32
50.98,27
51.04,40
51.1,36
51.16,24
51.22,34
51.28,34
51.34,34
51.4,29
51.46,31
51.52,28
51.58,26
51.64,24
51.7,44
51.76,31
51.82,26
51.88,28
51.94,43
52,42
52.06,29
52.12,27
52.18,28
52.24,31
52.3,36
52.36,38
52.42,34
52.48,40
52.54,37
52.6,27
52.66,45
52.72,30
52.78,38
52.84,36
52.9,42
52.96,39
53.02,39
53.08,36
53.14,45
53.2,38
53.26,25
53.32,29
53.38,24
53.44,29
53.5,37
53.56,41
53.62,42
53.68,35
53.74,30
53.8,31
53.86,49
53.92,46
53.98,40
54.04,37
54.1,44
54.16,43
54.22,33
54.28,41
54.34,45
54.4,47
54.46,38
54.52,40
54.58,54
54.64,43
54.7,42
54.76,53
54.82,46
54.88,66
54.94,59
55,64
55.06,73
55.12,69
55.18,65
55.24,76
55.3,70
55.36,65
55.42,50
55.48,66
55.54,63
55.6,78
55.66,57
55.72,83
55.78,92
55.84,143
55.9,126
55.96,122
56.02,132
56.08,137
56.14,100
56.2,98
56.26,61
56.32,85
56.38,67
56.44,76
56.5,81
56.56,68
56.62,61
56.68,79
56.74,59
56.8,61
56.86,53
56.92,44
56.98,54
57.04,53
57.1,37
57.16,49
57.22,47
57.28,48
57.34,62
57.4,51
57.46,41
57.52,42
57.58,46
57.64,48
57.7,37
57.76,56
57.82,38
57.88,38
57.94,51
58,45
58.06,71
58.12,47
58.18,35
58.24,56
58.3,48
58.36,44
58.42,55
58.48,63
58.54,53
58.6,65
58.66,65
58.72,66
58.78,75
58.84,90
58.9,91
58.96,99
59.02,92
59.08,70
59.14,61
59.2,62
59.26,40
59.32,58
59.38,59
59.44,65
59.5,52
59.56,56
59.62,50
59.68,48
59.74,56
59.8,66
59.86,49
59.92,43
59.98,48
60.04,31
60.1,38
60.16,56
60.22,53
60.28,45
60.34,50
60.4,48
60.46,47
60.52,57
60.58,57
60.64,61
60.7,38
60.76,48
60.82,48
60.88,48
60.94,46
61,46
61.06,45
61.12,54
61.18,44
61.24,43
61.3,52
61.36,60
61.42,53
61.48,83
61.54,52
61.6,69
61.66,60
61.72,67
61.78,52
61.84,59
61.9,51
61.96,70
62.02,50
62.08,62
62.14,42
62.2,46
62.26,63
62.32,44
62.38,52
62.44,69
62.5,50
62.56,56
62.62,41
62.68,51
62.74,62
62.8,55
62.86,60
62.92,67
62.98,54
63.04,81
63.1,70
63.16,54
63.22,56
63.28,43
63.34,51
63.4,42
63.46,48
63.52,32
63.58,38
63.64,32
63.7,35
63.76,42
63.82,31
63.88,50
63.94,41
64,38
64.06,40
64.12,47
64.18,34
64.24,35
64.3,40
64.36,43
64.42,41
64.48,37
64.54,44
64.6,39
64.66,45
64.72,48
64.78,43
64.84,45
64.9,56
64.96,48
65.02,56
65.08,47
65.14,64
65.2,48
65.26,62
65.32,38
65.38,38
65.44,35
65.5,45
65.56,42
65.62,47
65.68,45
65.74,45
65.8,38
65.86,46
65.92,40
65.98,37
66.04,31
66.1,39
66.16,31
66.22,42
66.28,31
66.34,25
66.4,27
66.46,39
66.52,37
66.58,32
66.64,32
66.7,42
66.76,44
66.82,41
66.88,51
66.94,41
67,46
67.06,45
67.12,47
67.18,42
67.24,52
67.3,39
67.36,38
67.42,37
67.48,37
67.54,42
67.6,42
67.66,31
67.72,35
67.78,40
67.84,41
67.9,47
67.96,41
68.02,50
68.08,50
68.14,42
68.2,45
68.26,54
68.32,41
68.38,49
68.44,47
68.5,56
68.56,56
68.62,49
68.68,60
68.74,75
68.8,62
68.86,62
68.92,57
68.98,58
69.04,60
69.1,47
69.16,61
69.22,51
69.28,66
69.34,38
69.4,66
69.46,47
69.52,77
69.58,64
69.64,52
69.7,63
69.76,51
69.82,65
69.88,59
69.94,84
70,80
70.06,73
70.12,71
70.18,63
70.24,96
70.3,78
70.36,61