File: Fig 2/Fig2_XRD_SigmaCalcite.csv
Bragg_angle,Intensity
\circ,a.u.
5,329
5.1,341
5.2,338
5.3,347
5.4,326
5.5,307
5.6,304
5.7,329
5.8,320
5.9,318
6,314
6.1,309
6.2,347
6.3,360
6.4,332
6.5,336
6.6,314
6.7,341
6.8,313
6.9,292
7,273
7.1,228
7.2,261
7.3,230
7.4,258
7.5,243
7.6,249
7.7,251
7.8,228
7.9,268
8,233
8.1,273
8.2,265
8.3,295
8.4,267
8.5,274
8.6,291
8.7,279
8.8,345
8.9,345
9,407
9.1,394
9.2,450
9.3,440
9.4,482
9.5,483
9.6,455
9.7,490
9.8,482
9.9,503
10,462
10.1,448
10.2,424
10.3,409
10.4,322
10.5,275
10.6,230
10.7,220
10.8,200
10.9,227
11,202
11.1,186
11.2,172
11.3,176
11.4,166
11.5,163
11.6,204
11.7,171
11.8,167
11.9,197
12,182
12.1,183
12.2,154
12.3,185
12.4,179
12.5,163
12.6,176
12.7,195
12.8,176
12.9,161
13,170
13.1,153
13.2,163
13.3,189
13.4,166
13.5,170
13.6,150
13.7,170
13.8,166
13.9,169
14,179
14.1,144
14.2,151
14.3,144
14.4,156
14.5,163
14.6,161
14.7,156
14.8,144
14.9,146
15,163
15.1,119
15.2,158
15.3,132
15.4,144
15.5,134
15.6,158
15.7,134
15.8,145
15.9,123
16,127
16.1,127
16.2,125
16.3,132
16.4,138
16.5,135
16.6,130
16.7,140
16.8,117
16.9,114
17,143
17.1,128
17.2,111
17.3,133
17.4,124
17.5,125
17.6,100
17.7,121
17.8,109
17.9,116
18,94
18.1,96
18.2,113
18.3,106
18.4,116
18.5,108
18.6,98
18.7,103
18.8,119
18.9,106
19,102
19.1,93
19.2,107
19.3,103
19.4,100
19.5,101
19.6,98
19.7,108
19.8,80
19.9,108
20,82
20.1,99
20.2,95
20.3,89
20.4,90
20.5,114
20.6,83
20.7,97
20.8,100
20.9,92
21,91
21.1,95
21.2,78
21.3,70
21.4,77
21.5,92
21.6,76
21.7,89
21.8,77
21.9,79
22,80
22.1,90
22.2,79
22.3,77
22.4,79
22.5,99
22.6,78
22.7,97
22.8,109
22.9,203
23,721
23.1,1248
23.2,254
23.3,95
23.4,81
23.5,82
23.6,66
23.7,70
23.8,82
23.9,93
24,83
24.1,79
24.2,83
24.3,62
24.4,78
24.5,73
24.6,85
24.7,77
24.8,84
24.9,85
25,89
25.1,77
25.2,64
25.3,55
25.4,83
25.5,73
25.6,74
25.7,71
25.8,61
25.9,64
26,75
26.1,72
26.2,83
26.3,60
26.4,99
26.5,179
26.6,140
26.7,88
26.8,67
26.9,79
27,75
27.1,78
27.2,78
27.3,57
27.4,57
27.5,62
27.6,74
27.7,73
27.8,63
27.9,77
28,75
28.1,72
28.2,72
28.3,77
28.4,101
28.5,107
28.6,110
28.7,119
28.8,117
28.9,116
29,116
29.1,218
29.2,647
29.3,2706
29.4,11678
29.5,6946
29.6,635
29.7,216
29.8,142
29.9,111
30,113
30.1,110
30.2,89
30.3,103
30.4,105
30.5,88
30.6,90
30.7,95
30.8,81
30.9,87
31,92
31.1,95
31.2,92
31.3,110
31.4,247
31.5,289
31.6,145
31.7,71
31.8,77
31.9,73
32,79
32.1,60
32.2,74
32.3,58
32.4,85
32.5,85
32.6,62
32.7,69
32.8,63
32.9,65
33,65
33.1,65
33.2,67
33.3,73
33.4,69
33.5,60
33.6,62
33.7,70
33.8,60
33.9,75
34,71
34.1,66
34.2,60
34.3,59
34.4,52
34.5,51
34.6,56
34.7,58
34.8,66
34.9,73
35,67
35.1,66
35.2,60
35.3,67
35.4,76
35.5,90
35.6,67
35.7,70
35.8,170
35.9,631
36,1501
36.1,783
36.2,110
36.3,65
36.4,62
36.5,60
36.6,67
36.7,56
36.8,63
36.9,43
37,62
37.1,56
37.2,60
37.3,65
37.4,50
37.5,55
37.6,55
37.7,52
37.8,54
37.9,60
38,59
38.1,69
38.2,56
38.3,49
38.4,53
38.5,56
38.6,57
38.7,60
38.8,78
38.9,79
39,66
39.1,90
39.2,156
39.3,466
39.4,2251
39.5,1767
39.6,523
39.7,103
39.8,70
39.9,63
40,53
40.1,56
40.2,43
40.3,63
40.4,48
40.5,55
40.6,46
40.7,60
40.8,45
40.9,51
41,53
41.1,47
41.2,56
41.3,54
41.4,44
41.5,59
41.6,46
41.7,51
41.8,64
41.9,48
42,56
42.1,47
42.2,56
42.3,67
42.4,73
42.5,45
42.6,69
42.7,68
42.8,74
42.9,80
43,176
43.1,895
43.2,1766
43.3,909
43.4,151
43.5,85
43.6,88
43.7,70
43.8,66
43.9,48
44,59
44.1,54
44.2,60
44.3,68
44.4,49
44.5,52
44.6,53
44.7,45
44.8,49
44.9,49
45,48
45.1,53
45.2,58
45.3,35
45.4,52
45.5,46
45.6,63
45.7,47
45.8,52
45.9,72
46,62
46.1,55
46.2,69
46.3,64
46.4,62
46.5,74
46.6,69
46.7,55
46.8,71
46.9,97
47,176
47.1,672
47.2,543
47.3,370
47.4,520
47.5,2257
47.6,1503
47.7,706
47.8,130
47.9,69
48,77
48.1,83
48.2,89
48.3,151
48.4,556
48.5,2237
48.6,1600
48.7,774
48.8,137
48.9,71
49,66
49.1,68
49.2,62
49.3,67
49.4,54
49.5,52
49.6,47
49.7,52
49.8,61
49.9,56
50,47
50.1,59
50.2,65
50.3,54
50.4,44
50.5,61
50.6,54
50.7,47
50.8,58
50.9,53
51,45
51.1,44
51.2,58
51.3,40
51.4,61
51.5,62
51.6,54
51.7,47
51.8,50
51.9,48
52,54
52.1,33
52.2,57
52.3,48
52.4,45
52.5,43
52.6,48
52.7,49
52.8,44
52.9,47
53,42
53.1,42
53.2,41
53.3,57
53.4,42
53.5,35
53.6,31
53.7,38
53.8,51
53.9,47
54,35
54.1,55
54.2,37
54.3,64
54.4,39
54.5,55
54.6,49
54.7,51
54.8,44
54.9,45
55,46
55.1,46
55.2,43
55.3,48
55.4,49
55.5,42
55.6,35
55.7,47
55.8,43
55.9,43
56,38
56.1,43
56.2,37
56.3,50
56.4,67
56.5,204
56.6,371
56.7,236
56.8,132
56.9,59
57,59
57.1,55
57.2,97
57.3,303
57.4,1032
57.5,516
57.6,433
57.7,102
57.8,55
57.9,55
58,91
58.1,155
58.2,101
58.3,69
58.4,38
58.5,51
58.6,49
58.7,35
58.8,46
58.9,56
59,30
59.1,51
59.2,42
59.3,34
59.4,31
59.5,29
59.6,28
59.7,26
59.8,51
59.9,36
60,30
60.1,36
60.2,53
60.3,39
60.4,42
60.5,74
60.6,288
60.7,592
60.8,305
60.9,290
61,255
61.1,168
61.2,172
61.3,166
61.4,251
61.5,147
61.6,135
61.7,51
61.8,44
61.9,35
62,33
62.1,31
62.2,28
62.3,36
62.4,38
62.5,43
62.6,37
62.7,38
62.8,31
62.9,72
63,193
63.1,216
63.2,126
63.3,102
63.4,36
63.5,44
63.6,39
63.7,34
63.8,36
63.9,40
64,41
64.1,36
64.2,43
64.3,37
64.4,42
64.5,97
64.6,383
64.7,508
64.8,312
64.9,232
65,57
65.1,41
65.2,44
65.3,47
65.4,50
65.5,155
65.6,392
65.7,206
65.8,227
65.9,59
66,35
66.1,27
66.2,45
66.3,34
66.4,37
66.5,30
66.6,28
66.7,30
66.8,43
66.9,45
67,38
67.1,34
67.2,37
67.3,29
67.4,40
67.5,42
67.6,31
67.7,31
67.8,42
67.9,34
68,23
68.1,39
68.2,34
68.3,33
68.4,41
68.5,30
68.6,48
68.7,37
68.8,37
68.9,34
69,45
69.1,80
69.2,169
69.3,78
69.4,88
69.5,49
69.6,36
69.7,35
69.8,31
69.9,33
70,36
70.1,57
70.2,224
70.3,179
70.4,140
70.5,98
70.6,34
70.7,38
70.8,35
70.9,28
71,32
71.1,24
71.2,28
71.3,38
71.4,44
71.5,27
71.6,32
71.7,37
71.8,32
71.9,38
72,22
72.1,33
72.2,42
72.3,25
72.4,36
72.5,45
72.6,41
72.7,61
72.8,169
72.9,351
73,138
73.1,198
73.2,70
73.3,39
73.4,46
73.5,38
73.6,73
73.7,109
73.8,48
73.9,64
74,31
74.1,15
74.2,37
74.3,40
74.4,37
74.5,33
74.6,26
74.7,46
74.8,40
74.9,32
75,29
75.1,37
75.2,37
75.3,33
75.4,36
75.5,35
75.6,31
75.7,34
75.8,27
75.9,33
76,40
76.1,39
76.2,106
76.3,136
76.4,60
76.5,84
76.6,43
76.7,39
76.8,41
76.9,39
77,65
77.1,216
77.2,207
77.3,97
77.4,132
77.5,47
77.6,27
77.7,47
77.8,28
77.9,25
78,33
78.1,29
78.2,35
78.3,41
78.4,25
78.5,31
78.6,29
78.7,32
78.8,32
78.9,29
79,27
79.1,26
79.2,24
79.3,30
79.4,43
79.5,24
79.6,27
79.7,26
79.8,26
79.9,30
80,27