File: Fig S2/FigS2_A_XRD_mixture_x935.csv
Bragg_angle,Intensity
\circ,a.u.
5,241
5.06,196
5.12,202
5.18,206
5.24,193
5.3,199
5.36,225
5.42,211
5.48,225
5.54,237
5.6,204
5.66,209
5.72,198
5.78,210
5.84,206
5.9,183
5.96,161
6.02,141
6.08,148
6.14,142
6.2,142
6.26,182
6.32,151
6.38,166
6.44,138
6.5,156
6.56,157
6.62,155
6.68,119
6.74,138
6.8,115
6.86,139
6.92,139
6.98,110
7.04,119
7.1,146
7.16,140
7.22,123
7.28,146
7.34,166
7.4,143
7.46,154
7.52,161
7.58,148
7.64,155
7.7,131
7.76,149
7.82,172
7.88,162
7.94,150
8,154
8.06,137
8.12,139
8.18,131
8.24,137
8.3,147
8.36,113
8.42,134
8.48,114
8.54,117
8.6,112
8.66,113
8.72,106
8.78,127
8.84,122
8.9,146
8.96,161
9.02,150
9.08,151
9.14,169
9.2,171
9.26,162
9.32,175
9.38,223
9.44,205
9.5,191
9.56,262
9.62,216
9.68,217
9.74,210
9.8,212
9.86,231
9.92,226
9.98,240
10.04,243
10.1,229
10.16,194
10.22,203
10.28,214
10.34,210
10.4,168
10.46,168
10.52,180
10.58,149
10.64,142
10.7,133
10.76,119
10.82,120
10.88,121
10.94,115
11,130
11.06,110
11.12,109
11.18,102
11.24,107
11.3,114
11.36,119
11.42,109
11.48,107
11.54,106
11.6,115
11.66,145
11.72,111
11.78,90
11.84,119
11.9,107
11.96,106
12.02,125
12.08,102
12.14,101
12.2,109
12.26,115
12.32,118
12.38,140
12.44,102
12.5,112
12.56,116
12.62,123
12.68,124
12.74,100
12.8,110
12.86,115
12.92,127
12.98,119
13.04,116
13.1,86
13.16,112
13.22,108
13.28,115
13.34,108
13.4,93
13.46,122
13.52,85
13.58,103
13.64,116
13.7,121
13.76,86
13.82,99
13.88,98
13.94,97
14,106
14.06,104
14.12,98
14.18,104
14.24,98
14.3,118
14.36,100
14.42,94
14.48,107
14.54,132
14.6,115
14.66,116
14.72,90
14.78,100
14.84,95
14.9,111
14.96,116
15.02,120
15.08,97
15.14,118
15.2,119
15.26,98
15.32,122
15.38,107
15.44,109
15.5,106
15.56,105
15.62,88
15.68,118
15.74,115
15.8,95
15.86,102
15.92,103
15.98,103
16.04,107
16.1,109
16.16,106
16.22,91
16.28,99
16.34,95
16.4,90
16.46,95
16.52,92
16.58,86
16.64,87
16.7,96
16.76,85
16.82,88
16.88,91
16.94,88
17,98
17.06,73
17.12,100
17.18,96
17.24,77
17.3,96
17.36,71
17.42,70
17.48,89
17.54,70
17.6,105
17.66,89
17.72,99
17.78,82
17.84,86
17.9,96
17.96,75
18.02,97
18.08,94
18.14,95
18.2,91
18.26,77
18.32,90
18.38,77
18.44,80
18.5,80
18.56,87
18.62,87
18.68,71
18.74,69
18.8,98
18.86,112
18.92,79
18.98,92
19.04,76
19.1,106
19.16,98
19.22,115
19.28,113
19.34,151
19.4,196
19.46,307
19.52,449
19.58,805
19.64,1031
19.7,692
19.76,433
19.82,307
19.88,310
19.94,347
20,338
20.06,416
20.12,351
20.18,227
20.24,151
20.3,131
20.36,89
20.42,100
20.48,114
20.54,78
20.6,104
20.66,76
20.72,94
20.78,86
20.84,81
20.9,88
20.96,84
21.02,79
21.08,80
21.14,78
21.2,76
21.26,74
21.32,80
21.38,76
21.44,91
21.5,81
21.56,109
21.62,114
21.68,96
21.74,108
21.8,88
21.86,108
21.92,75
21.98,99
22.04,90
22.1,87
22.16,86
22.22,77
22.28,75
22.34,72
22.4,90
22.46,70
22.52,76
22.58,71
22.64,77
22.7,62
22.76,76
22.82,68
22.88,77
22.94,78
23,87
23.06,83
23.12,76
23.18,86
23.24,90
23.3,107
23.36,105
23.42,134
23.48,98
23.54,98
23.6,128
23.66,134
23.72,181
23.78,255
23.84,418
23.9,656
23.96,1263
24.02,2510
24.08,4038
24.14,3180
24.2,1958
24.26,1350
24.32,1373
24.38,1434
24.44,1558
24.5,1230
24.56,640
24.62,353
24.68,236
24.74,176
24.8,140
24.86,139
24.92,109
24.98,103
25.04,103
25.1,88
25.16,97
25.22,96
25.28,81
25.34,87
25.4,92
25.46,92
25.52,92
25.58,91
25.64,68
25.7,89
25.76,83
25.82,80
25.88,87
25.94,85
26,72
26.06,90
26.12,73
26.18,81
26.24,90
26.3,81
26.36,81
26.42,70
26.48,72
26.54,86
26.6,74
26.66,90
26.72,86
26.78,65
26.84,75
26.9,86
26.96,66
27.02,90
27.08,74
27.14,84
27.2,74
27.26,84
27.32,71
27.38,74
27.44,74
27.5,69
27.56,70
27.62,80
27.68,89
27.74,106
27.8,158
27.86,267
27.92,317
27.98,183
28.04,107
28.1,85
28.16,76
28.22,59
28.28,71
28.34,75
28.4,58
28.46,73
28.52,78
28.58,72
28.64,66
28.7,71
28.76,52
28.82,62
28.88,66
28.94,62
29,78
29.06,68
29.12,65
29.18,72
29.24,73
29.3,72
29.36,81
29.42,79
29.48,92
29.54,152
29.6,194
29.66,181
29.72,135
29.78,136
29.84,107
29.9,78
29.96,78
30.02,76
30.08,77
30.14,50
30.2,61
30.26,65
30.32,65
30.38,62
30.44,68
30.5,68
30.56,65
30.62,63
30.68,73
30.74,77
30.8,67
30.86,73
30.92,68
30.98,76
31.04,53
31.1,70
31.16,72
31.22,91
31.28,81
31.34,70
31.4,74
31.46,80
31.52,66
31.58,70
31.64,56
31.7,51
31.76,63
31.82,59
31.88,54
31.94,50
32,80
32.06,61
32.12,48
32.18,50
32.24,54
32.3,64
32.36,66
32.42,73
32.48,62
32.54,77
32.6,74
32.66,95
32.72,87
32.78,92
32.84,88
32.9,81
32.96,79
33.02,81
33.08,73
33.14,81
33.2,79
33.26,99
33.32,108
33.38,127
33.44,122
33.5,115
33.56,162
33.62,169
33.68,204
33.74,254
33.8,384
33.86,634
33.92,755
33.98,747
34.04,641
34.1,619
34.16,666
34.22,830
34.28,893
34.34,873
34.4,785
34.46,734
34.52,821
34.58,932
34.64,1170
34.7,1642
34.76,1870
34.82,1378
34.88,867
34.94,427
35,255
35.06,178
35.12,135
35.18,126
35.24,91
35.3,100
35.36,83
35.42,76
35.48,70
35.54,69
35.6,84
35.66,74
35.72,86
35.78,70
35.84,45
35.9,65
35.96,72
36.02,54
36.08,68
36.14,73
36.2,76
36.26,58
36.32,55
36.38,61
36.44,57
36.5,53
36.56,70
36.62,64
36.68,69
36.74,62
36.8,52
36.86,52
36.92,67
36.98,59
37.04,57
37.1,72
37.16,56
37.22,52
37.28,40
37.34,57
37.4,65
37.46,50
37.52,71
37.58,64
37.64,56
37.7,62
37.76,57
37.82,63
37.88,78
37.94,87
38,72
38.06,81
38.12,84
38.18,85
38.24,82
38.3,63
38.36,79
38.42,79
38.48,78
38.54,58
38.6,61
38.66,76
38.72,61
38.78,72
38.84,61
38.9,61
38.96,64
39.02,61
39.08,76
39.14,66
39.2,55
39.26,83
39.32,79
39.38,102
39.44,127
39.5,176
39.56,328
39.62,558
39.68,596
39.74,467
39.8,312
39.86,211
39.92,159
39.98,110
40.04,123
40.1,113
40.16,107
40.22,101
40.28,126
40.34,98
40.4,128
40.46,155
40.52,157
40.58,181
40.64,211
40.7,208
40.76,138
40.82,115
40.88,110
40.94,99
41,81
41.06,66
41.12,77
41.18,73
41.24,63
41.3,78
41.36,67
41.42,82
41.48,74
41.54,76
41.6,82
41.66,75
41.72,107
41.78,95
41.84,122
41.9,164
41.96,222
42.02,408
42.08,807
42.14,1391
42.2,1466
42.26,1167
42.32,877
42.38,531
42.44,404
42.5,280
42.56,220
42.62,221
42.68,215
42.74,210
42.8,251
42.86,288
42.92,293
42.98,374
43.04,460
43.1,551
43.16,509
43.22,379
43.28,301
43.34,170
43.4,161
43.46,98
43.52,91
43.58,97
43.64,93
43.7,73
43.76,80
43.82,79
43.88,70
43.94,74
44,75
44.06,91
44.12,91
44.18,105
44.24,150
44.3,212
44.36,295
44.42,275
44.48,267
44.54,298
44.6,257
44.66,245
44.72,227
44.78,238
44.84,289
44.9,328
44.96,464
45.02,655
45.08,637
45.14,511
45.2,354
45.26,175
45.32,112
45.38,110
45.44,69
45.5,62
45.56,65
45.62,56
45.68,59
45.74,56
45.8,66
45.86,54
45.92,62
45.98,41
46.04,58
46.1,55
46.16,67
46.22,58
46.28,78
46.34,57
46.4,64
46.46,63
46.52,65
46.58,69
46.64,84
46.7,74
46.76,87
46.82,130
46.88,213
46.94,408
47,381
47.06,353
47.12,318
47.18,288
47.24,183
47.3,159
47.36,90
47.42,82
47.48,58
47.54,52
47.6,53
47.66,63
47.72,59
47.78,67
47.84,55
47.9,58
47.96,54
48.02,71
48.08,70
48.14,72
48.2,85
48.26,74
48.32,70
48.38,67
48.44,54
48.5,54
48.56,56
48.62,58
48.68,74
48.74,61
48.8,58
48.86,55
48.92,79
48.98,104
49.04,139
49.1,145
49.16,153
49.22,110
49.28,115
49.34,86
49.4,64
49.46,71
49.52,69
49.58,70
49.64,69
49.7,88
49.76,90
49.82,82
49.88,104
49.94,84
50,101
50.06,72
50.12,62
50.18,52
50.24,42
50.3,60
50.36,42
50.42,60
50.48,44
50.54,59
50.6,36
50.66,46
50.72,40
50.78,44
50.84,36
50.9,53
50.96,45
51.02,53
51.08,40
51.14,47
51.2,37
51.26,52
51.32,54
51.38,48
51.44,43
51.5,47
51.56,48
51.62,49
51.68,41
51.74,51
51.8,41
51.86,46
51.92,42
51.98,51
52.04,43
52.1,46
52.16,56
52.22,66
52.28,40
52.34,62
52.4,44
52.46,55
52.52,62
52.58,57
52.64,60
52.7,81
52.76,108
52.82,106
52.88,106
52.94,135
53,102
53.06,117
53.12,102
53.18,101
53.24,79
53.3,106
53.36,87
53.42,98
53.48,76
53.54,79
53.6,98
53.66,115
53.72,144
53.78,138
53.84,152
53.9,142
53.96,132
54.02,102
54.08,105
54.14,87
54.2,92
54.26,93
54.32,102
54.38,130
54.44,121
54.5,138
54.56,120
54.62,134
54.68,139
54.74,171
54.8,219
54.86,284
54.92,293
54.98,295
55.04,244
55.1,218
55.16,184
55.22,161
55.28,211
55.34,138
55.4,155
55.46,153
55.52,153
55.58,175
55.64,210
55.7,228
55.76,290
55.82,344
55.88,373
55.94,317
56,277
56.06,264
56.12,202
56.18,213
56.24,219
56.3,230
56.36,269
56.42,331
56.48,286
56.54,239
56.6,216
56.66,155
56.72,115
56.78,82
56.84,83
56.9,61
56.96,58
57.02,56
57.08,50
57.14,55
57.2,50
57.26,40
57.32,55
57.38,63
57.44,64
57.5,85
57.56,64
57.62,65
57.68,48
57.74,46
57.8,56
57.86,51
57.92,47
57.98,61
58.04,56
58.1,47
58.16,50
58.22,47
58.28,47
58.34,56
58.4,51
58.46,51
58.52,50
58.58,49
58.64,45
58.7,52
58.76,51
58.82,57
58.88,54
58.94,52
59,45
59.06,53
59.12,71
59.18,107
59.24,116
59.3,114
59.36,91
59.42,96
59.48,82
59.54,79
59.6,56
59.66,60
59.72,55
59.78,60
59.84,64
59.9,75
59.96,69
60.02,71
60.08,79
60.14,68
60.2,63
60.26,49
60.32,49
60.38,51
60.44,65
60.5,70
60.56,53
60.62,81
60.68,103
60.74,97
60.8,122
60.86,148
60.92,227
60.98,278
61.04,290
61.1,296
61.16,247
61.22,249
61.28,188
61.34,155
61.4,149
61.46,152
61.52,136
61.58,133
61.64,126
61.7,98
61.76,109
61.82,122
61.88,88
61.94,91
62,95
62.06,90
62.12,111
62.18,112
62.24,109
62.3,99
62.36,106
62.42,94
62.48,107
62.54,104
62.6,116
62.66,133
62.72,118
62.78,107
62.84,106
62.9,91
62.96,75
63.02,70
63.08,63
63.14,65
63.2,58
63.26,42
63.32,51
63.38,48
63.44,36
63.5,45
63.56,35
63.62,36
63.68,46
63.74,45
63.8,46
63.86,47
63.92,39
63.98,37
64.04,53
64.1,41
64.16,52
64.22,41
64.28,45
64.34,47
64.4,44
64.46,42
64.52,39
64.58,29
64.64,43
64.7,38
64.76,36
64.82,49
64.88,41
64.94,49
65,39
65.06,43
65.12,45
65.18,43
65.24,34
65.3,43
65.36,39
65.42,38
65.48,46
65.54,34
65.6,37
65.66,44
65.72,42
65.78,42
65.84,40
65.9,41
65.96,33
66.02,47
66.08,34
66.14,42
66.2,46
66.26,32
66.32,33
66.38,50
66.44,35
66.5,43
66.56,42
66.62,41
66.68,42
66.74,47
66.8,47
66.86,42
66.92,50
66.98,38
67.04,42
67.1,32
67.16,33
67.22,42
67.28,48
67.34,41
67.4,42
67.46,55
67.52,46
67.58,47
67.64,40
67.7,45
67.76,44
67.82,40
67.88,50
67.94,48
68,72
68.06,66
68.12,101
68.18,135
68.24,205
68.3,283
68.36,238
68.42,216
68.48,226
68.54,204
68.6,152
68.66,141
68.72,159
68.78,178
68.84,146
68.9,135
68.96,114
69.02,107
69.08,95
69.14,70
69.2,64
69.26,75
69.32,77
69.38,52
69.44,69
69.5,87
69.56,90
69.62,113
69.68,129
69.74,152
69.8,186
69.86,180
69.92,177
69.98,178
70.01,182
,