File: Fig S2/FigS2_C_XRD_ACBC_x25.csv
Bragg_angle,Intensity
\circ,a.u.
5,364
5.1,369
5.2,336
5.3,351
5.4,291
5.5,344
5.6,304
5.7,322
5.8,280
5.9,327
6,279
6.1,310
6.2,279
6.3,329
6.4,281
6.5,323
6.6,276
6.7,249
6.8,279
6.9,252
7,205
7.1,224
7.2,246
7.3,217
7.4,219
7.5,247
7.6,189
7.7,222
7.8,253
7.9,207
8,243
8.1,240
8.2,183
8.3,227
8.4,225
8.5,195
8.6,205
8.7,224
8.8,207
8.9,220
9,202
9.1,230
9.2,269
9.3,276
9.4,330
9.5,318
9.6,288
9.7,379
9.8,325
9.9,342
10,345
10.1,307
10.2,301
10.3,290
10.4,276
10.5,254
10.6,207
10.7,201
10.8,217
10.9,194
11,205
11.1,180
11.2,186
11.3,181
11.4,172
11.5,156
11.6,178
11.7,152
11.8,171
11.9,168
12,175
12.1,184
12.2,170
12.3,192
12.4,163
12.5,157
12.6,187
12.7,179
12.8,181
12.9,188
13,170
13.1,167
13.2,176
13.3,183
13.4,163
13.5,182
13.6,178
13.7,204
13.8,154
13.9,188
14,179
14.1,178
14.2,166
14.3,167
14.4,180
14.5,159
14.6,169
14.7,165
14.8,169
14.9,184
15,167
15.1,178
15.2,201
15.3,177
15.4,175
15.5,211
15.6,185
15.7,185
15.8,159
15.9,179
16,168
16.1,174
16.2,163
16.3,192
16.4,190
16.5,176
16.6,163
16.7,157
16.8,172
16.9,193
17,174
17.1,172
17.2,177
17.3,161
17.4,168
17.5,178
17.6,180
17.7,164
17.8,160
17.9,171
18,173
18.1,155
18.2,161
18.3,157
18.4,176
18.5,168
18.6,163
18.7,179
18.8,169
18.9,153
19,170
19.1,156
19.2,140
19.3,167
19.4,163
19.5,181
19.6,168
19.7,158
19.8,190
19.9,176
20,145
20.1,166
20.2,152
20.3,173
20.4,168
20.5,179
20.6,177
20.7,168
20.8,183
20.9,172
21,216
21.1,247
21.2,216
21.3,192
21.4,160
21.5,179
21.6,155
21.7,173
21.8,172
21.9,190
22,203
22.1,199
22.2,213
22.3,248
22.4,307
22.5,431
22.6,541
22.7,701
22.8,851
22.9,827
23,510
23.1,322
23.2,252
23.3,217
23.4,196
23.5,179
23.6,157
23.7,163
23.8,155
23.9,156
24,167
24.1,124
24.2,158
24.3,145
24.4,181
24.5,186
24.6,165
24.7,193
24.8,199
24.9,260
25,283
25.1,257
25.2,209
25.3,164
25.4,174
25.5,154
25.6,163
25.7,159
25.8,157
25.9,186
26,159
26.1,175
26.2,184
26.3,141
26.4,151
26.5,176
26.6,166
26.7,152
26.8,193
26.9,236
27,285
27.1,371
27.2,398
27.3,318
27.4,266
27.5,211
27.6,189
27.7,192
27.8,197
27.9,224
28,217
28.1,252
28.2,318
28.3,392
28.4,565
28.5,708
28.6,928
28.7,1233
28.8,1782
28.9,2277
29,2017
29.1,1095
29.2,617
29.3,365
29.4,270
29.5,218
29.6,192
29.7,194
29.8,156
29.9,164
30,148
30.1,184
30.2,158
30.3,158
30.4,169
30.5,156
30.6,157
30.7,141
30.8,134
30.9,145
31,144
31.1,122
31.2,142
31.3,125
31.4,148
31.5,154
31.6,123
31.7,133
31.8,145
31.9,149
32,117
32.1,119
32.2,139
32.3,142
32.4,152
32.5,184
32.6,212
32.7,337
32.8,407
32.9,482
33,379
33.1,280
33.2,183
33.3,171
33.4,131
33.5,123
33.6,158
33.7,147
33.8,131
33.9,143
34,113
34.1,137
34.2,148
34.3,123
34.4,144
34.5,136
34.6,149
34.7,140
34.8,161
34.9,151
35,167
35.1,211
35.2,222
35.3,297
35.4,345
35.5,414
35.6,500
35.7,615
35.8,493
35.9,344
36,243
36.1,195
36.2,191
36.3,174
36.4,153
36.5,149
36.6,155
36.7,144
36.8,148
36.9,155
37,147
37.1,146
37.2,158
37.3,151
37.4,142
37.5,133
37.6,142
37.7,140
37.8,118
37.9,154
38,144
38.1,129
38.2,141
38.3,130
38.4,139
38.5,158
38.6,151
38.7,153
38.8,164
38.9,151
39,149
39.1,152
39.2,194
39.3,145
39.4,161
39.5,161
39.6,128
39.7,168
39.8,134
39.9,150
40,135
40.1,177
40.2,136
40.3,153
40.4,151
40.5,146
40.6,166
40.7,171
40.8,159
40.9,146
41,151
41.1,141
41.2,174
41.3,135
41.4,160
41.5,155
41.6,152
41.7,169
41.8,183
41.9,186
42,183
42.1,246
42.2,218
42.3,271
42.4,335
42.5,378
42.6,474
42.7,488
42.8,538
42.9,455
43,316
43.1,248
43.2,194
43.3,172
43.4,166
43.5,151
43.6,181
43.7,206
43.8,275
43.9,312
44,308
44.1,238
44.2,219
44.3,170
44.4,168
44.5,154
44.6,154
44.7,166
44.8,166
44.9,156
45,148
45.1,178
45.2,186
45.3,176
45.4,182
45.5,183
45.6,242
45.7,252
45.8,230
45.9,263
46,309
46.1,367
46.2,418
46.3,509
46.4,529
46.5,487
46.6,397
46.7,312
46.8,262
46.9,243
47,271
47.1,250
47.2,271
47.3,301
47.4,341
47.5,349
47.6,417
47.7,405
47.8,357
47.9,298
48,212
48.1,181
48.2,141
48.3,149
48.4,140
48.5,137
48.6,113
48.7,145
48.8,146
48.9,155
49,165
49.1,195
49.2,167
49.3,150
49.4,143
49.5,149
49.6,126
49.7,122
49.8,148
49.9,149
50,236
50.1,269
50.2,327
50.3,238
50.4,177
50.5,121
50.6,104
50.7,127
50.8,94
50.9,106
51,104
51.1,112
51.2,97
51.3,106
51.4,97
51.5,96
51.6,93
51.7,91
51.8,102
51.9,114
52,83
52.1,87
52.2,93
52.3,98
52.4,83
52.5,85
52.6,87
52.7,81
52.8,84
52.9,89
53,87
53.1,89
53.2,80
53.3,69
53.4,84
53.5,89
53.6,74
53.7,92
53.8,73
53.9,91
54,104
54.1,70
54.2,95
54.3,92
54.4,91
54.5,73
54.6,68
54.7,78
54.8,89
54.9,89
55,99
55.1,106
55.2,98
55.3,89
55.4,112
55.5,124
55.6,114
55.7,143
55.8,155
55.9,157
56,161
56.1,159
56.2,194
56.3,171
56.4,193
56.5,222
56.6,210
56.7,209
56.8,226
56.9,187
57,159
57.1,155
57.2,120
57.3,94
57.4,96
57.5,96
57.6,78
57.7,84
57.8,85
57.9,89
58,96
58.1,98
58.2,94
58.3,84
58.4,89
58.5,90
58.6,112
58.7,79
58.8,85
58.9,93
59,99
59.1,105
59.2,112
59.3,126
59.4,146
59.5,156
59.6,175
59.7,173
59.8,207
59.9,206
60,200
60.1,163
60.2,153
60.3,99
60.4,101
60.5,94
60.6,114
60.7,82
60.8,100
60.9,91
61,83
61.1,95
61.2,86
61.3,101
61.4,70
61.5,85
61.6,96
61.7,96
61.8,96
61.9,92
62,90
62.1,90
62.2,93
62.3,79
62.4,90
62.5,82
62.6,102
62.7,84
62.8,95
62.9,104
63,96
63.1,102
63.2,110
63.3,119
63.4,117
63.5,118
63.6,117
63.7,128
63.8,132
63.9,144
64,114
64.1,124
64.2,124
64.3,94
64.4,110
64.5,76
64.6,89
64.7,96
64.8,83
64.9,81
65,91
65.1,71
65.2,82
65.3,87
65.4,69
65.5,83
65.6,94
65.7,83
65.8,100
65.9,89
66,85
66.1,84
66.2,83
66.3,75
66.4,73
66.5,73
66.6,87
66.7,75
66.8,65
66.9,86
67,88
67.1,90
67.2,76
67.3,97
67.4,75
67.5,94
67.6,98
67.7,70
67.8,94
67.9,77
68,115
68.1,104
68.2,118
68.3,115
68.4,101
68.5,108
68.6,96
68.7,109
68.8,102
68.9,104
69,106
69.1,81
69.2,73
69.3,100
69.4,86
69.5,86
69.6,88
69.7,94
69.8,92
69.9,100
70,90
70.1,87
70.2,83
70.3,81
70.4,71
70.5,92
70.6,111
70.7,122
70.8,108
70.9,95
71,100
71.1,103
71.2,84
71.3,119
71.4,123
71.5,114
71.6,150
71.7,137
71.8,116
71.9,139
72,139
72.1,125
72.2,118
72.3,112
72.4,118
72.5,100
72.6,118
72.7,104
72.8,109
72.9,101
73,96
73.1,105
73.2,95
73.3,110
73.4,97
73.5,116
73.6,94
73.7,100
73.8,107
73.9,107
74,102
74.1,80
74.2,103
74.3,90
74.4,84
74.5,107
74.6,105
74.7,101
74.8,98
74.9,109
75,110
75.1,115
75.2,120
75.3,110
75.4,111
75.5,103
75.6,101
75.7,84
75.8,87
75.9,95
76,84
76.1,92
76.2,70
76.3,62
76.4,87
76.5,76
76.6,65
76.7,74
76.8,83
76.9,85
77,65
77.1,72
77.2,74
77.3,61
77.4,60
77.5,70
77.6,81
77.7,65
77.8,71
77.9,71
78,85
78.1,68
78.2,83
78.3,70
78.4,75
78.5,65
78.6,95
78.7,96
78.8,69
78.9,75
79,79
79.1,75
79.2,110
79.3,82
79.4,86
79.5,93
79.6,96
79.7,111
79.8,97
79.9,79
80,84