File: Fig S2/FigS2_XRD_vaterite_ref.csv
Bragg_angle,Intensity
\circ,a.u.
0,0
0.055,0
0.11,0
0.165,0
0.22,0
0.275,0
0.33,0
0.385,0
0.44,0
0.495,0
0.55,0
0.605,0
0.66,0
0.715,0
0.77,0
0.825,0
0.88,0
0.935,0
0.99,0
1.045,0
1.1,0
1.155,0
1.21,0
1.265,0
1.32,0
1.375,0
1.43,0
1.485,0
1.54,0
1.595,0
1.65,0
1.705,0
1.76,0
1.815,0
1.87,0
1.925,0
1.98,0
2.035,0
2.09,0
2.145,0
2.2,0
2.255,0
2.31,0
2.365,0
2.42,0
2.475,0
2.53,0
2.585,0
2.64,0
2.695,0
2.75,0
2.805,0
2.86,0
2.915,0
2.97,0
3.025,0
3.08,0
3.135,0
3.19,0
3.245,0
3.3,0
3.355,0
3.41,0
3.465,0
3.52,0
3.575,0
3.63,0
3.685,0
3.74,0
3.795,0
3.85,0
3.905,0
3.96,0
4.015,0
4.07,0
4.125,0
4.18,0
4.235,0
4.29,0
4.345,0
4.4,0
4.455,0
4.51,0
4.565,0
4.62,0
4.675,0
4.73,0
4.785,0
4.84,0
4.895,0
4.95,0
5.005,0
5.06,0
5.115,0
5.17,0
5.225,0
5.28,0
5.335,0
5.39,0
5.445,0
5.5,0
5.555,0
5.61,0
5.665,0
5.72,0
5.775,0
5.83,0
5.885,0
5.94,0
5.995,0
6.05,0
6.105,0
6.16,0
6.215,0
6.27,0
6.325,0
6.38,0
6.435,0
6.49,0
6.545,0
6.6,0
6.655,0
6.71,0
6.765,0
6.82,0
6.875,0
6.93,0
6.985,0
7.04,0
7.095,0
7.15,0
7.205,0
7.26,0
7.315,0
7.37,0
7.425,0
7.48,0
7.535,0
7.59,0
7.645,0
7.7,0
7.755,0
7.81,0
7.865,0
7.92,0
7.975,0
8.03,0
8.085,0
8.14,0
8.195,0
8.25,0
8.305,0
8.36,0
8.415,0
8.47,0
8.525,0
8.58,0
8.635,0
8.69,0
8.745,0
8.8,0
8.855,0
8.91,0
8.965,0
9.02,0
9.075,0
9.13,0
9.185,0
9.24,0
9.295,0
9.35,0
9.405,0
9.46,0
9.515,0
9.57,0
9.625,0
9.68,0
9.735,0
9.79,0
9.845,0
9.9,0
9.955,0
10.01,0
10.065,0
10.12,0
10.175,0
10.23,0
10.285,0
10.34,0
10.395,0
10.45,0
10.505,0
10.56,0
10.615,0
10.67,0
10.725,0
10.78,0
10.835,0
10.89,0
10.945,0
11,0
11.055,0
11.11,0
11.165,0
11.22,0
11.275,0
11.33,0
11.385,0
11.44,0
11.495,0
11.55,0
11.605,0
11.66,0
11.715,0
11.77,0
11.825,0
11.88,0
11.935,0
11.99,0
12.045,0
12.1,0
12.155,0
12.21,0
12.265,0
12.32,0
12.375,0
12.43,0
12.485,0
12.54,0
12.595,0
12.65,0
12.705,0
12.76,0
12.815,0
12.87,0
12.925,0
12.98,0
13.035,0
13.09,0
13.145,0
13.2,0
13.255,0
13.31,0
13.365,0
13.42,0
13.475,0
13.53,0
13.585,0
13.64,0
13.695,0
13.75,0
13.805,1.1855e-09
13.86,3.1492e-07
13.915,1.5632e-05
13.97,0.00014498
14.025,0.00025127
14.08,8.1371e-05
14.135,4.9239e-06
14.19,5.5674e-08
14.245,1.8473e-05
14.3,0.0038412
14.355,0.14925
14.41,1.0836
14.465,1.47
14.52,0.37263
14.575,0.01765
14.63,0.00015622
14.685,2.5835e-07
14.74,0
14.795,0
14.85,0
14.905,0
14.96,0
15.015,0
15.07,0
15.125,0
15.18,0
15.235,0
15.29,0
15.345,0
15.4,0
15.455,5.8549e-08
15.51,1.9901e-05
15.565,0.0012639
15.62,0.015
15.675,0.033262
15.73,0.013783
15.785,0.0010671
15.84,1.5439e-05
15.895,4.1736e-08
15.95,0
16.005,0
16.06,0
16.115,0
16.17,0
16.225,0
16.28,0
16.335,0
16.39,0
16.445,0
16.5,0
16.555,0
16.61,0
16.665,0
16.72,0
16.775,0
16.83,0
16.885,0
16.94,0
16.995,0
17.05,0
17.105,0
17.16,0
17.215,0
17.27,0
17.325,4.6663e-08
17.38,1.1124e-05
17.435,0.00049549
17.49,0.0041241
17.545,0.0064139
17.6,0.0018639
17.655,0.00010122
17.71,1.027e-06
17.765,1.9471e-09
17.82,0
17.875,0
17.93,0
17.985,0
18.04,0
18.095,0
18.15,0
18.205,0
18.26,0
18.315,0
18.37,0
18.425,0
18.48,0
18.535,0
18.59,0
18.645,0
18.7,0
18.755,0
18.81,0
18.865,0
18.92,0
18.975,0
19.03,0
19.085,0
19.14,0
19.195,0
19.25,0
19.305,0
19.36,0
19.415,0
19.47,0
19.525,0
19.58,0
19.635,3.1132e-06
19.69,0.0009982
19.745,0.059805
19.8,0.66952
19.855,1.4005
19.91,0.54744
19.965,0.039984
20.02,0.00054569
20.075,1.3916e-06
20.13,0
20.185,0
20.24,0
20.295,0
20.35,0
20.405,0
20.46,0
20.515,0
20.57,0
20.625,0
20.68,0
20.735,0
20.79,0
20.845,0.00010433
20.9,0.022516
20.955,0.90798
21.01,6.8419
21.065,9.6334
21.12,2.5345
21.175,0.1246
21.23,0.0011446
21.285,1.9646e-06
21.34,0
21.395,0
21.45,0
21.505,0
21.56,0
21.615,0
21.67,0
21.725,0
21.78,0
21.835,0
21.89,0
21.945,0
22,0
22.055,0
22.11,0
22.165,0
22.22,0
22.275,3.5966e-06
22.33,0.0013932
22.385,0.10085
22.44,1.364
22.495,3.4473
22.55,1.628
22.605,0.14365
22.66,0.0023686
22.715,7.2977e-06
22.77,0
22.825,0
22.88,0
22.935,0
22.99,0
23.045,0
23.1,0
23.155,0
23.21,0
23.265,0
23.32,0
23.375,0
23.43,0
23.485,0
23.54,0
23.595,0
23.65,0
23.705,0
23.76,0
23.815,0
23.87,0
23.925,0
23.98,0
24.035,0
24.09,0
24.145,0
24.2,0.001007
24.255,0.18861
24.31,6.6011
24.365,43.168
24.42,52.75
24.475,12.044
24.53,0.52474
24.585,0.2159
24.64,0.77163
24.695,0.52527
24.75,0.066814
24.805,0.001588
24.86,7.0528e-06
24.915,0
24.97,0
25.025,0
25.08,0
25.135,2.9084e-09
25.19,2.6948e-06
25.245,0.00048533
25.3,0.020119
25.355,0.18769
25.41,0.36781
25.465,0.14272
25.52,0.010613
25.575,0.000149
25.63,3.9181e-07
25.685,0
25.74,0
25.795,0
25.85,0
25.905,0
25.96,0
26.015,0
26.07,0
26.125,0
26.18,0
26.235,0
26.29,0
26.345,0
26.4,0.0001812
26.455,0.061479
26.51,3.8976
26.565,46.171
26.62,102.2
26.675,42.271
26.73,3.2669
26.785,0.047178
26.84,0.00012731
26.895,0
26.95,0
27.005,0
27.06,0
27.115,0
27.17,0
27.225,0
27.28,0
27.335,0
27.39,0
27.445,0
27.5,0
27.555,0
27.61,0
27.665,0
27.72,0
27.775,0
27.83,0
27.885,0
27.94,0
27.995,1.6881e-07
28.05,0.00010219
28.105,0.01156
28.16,0.24435
28.215,0.96519
28.27,0.71776
28.325,0.38888
28.38,2.9702
28.435,5.6707
28.49,2.0344
28.545,0.13865
28.6,0.0018647
28.655,5.4788e-06
28.71,2.4446e-09
28.765,0
28.82,0
28.875,0
28.93,1.1206e-06
28.985,0.00022447
29.04,0.008402
29.095,0.058763
29.15,0.076795
29.205,0.018753
29.26,0.00085569
29.315,7.2957e-06
29.37,1.1623e-08
29.425,0
29.48,0
29.535,0
29.59,0
29.645,0
29.7,0
29.755,0
29.81,0
29.865,0
29.92,0
29.975,1.0154e-06
30.03,0.00032541
30.085,0.019669
30.14,0.22507
30.195,0.4899
30.25,0.20397
30.305,0.016341
30.36,0.00025327
30.415,7.6211e-07
30.47,0
30.525,0
30.58,0
30.635,0
30.69,0
30.745,0
30.8,0
30.855,0
30.91,0
30.965,0
31.02,0
31.075,0
31.13,0
31.185,0
31.24,0
31.295,0
31.35,0
31.405,1.8494e-05
31.46,0.0048779
31.515,0.27242
31.57,3.6448
31.625,12.426
31.68,9.9109
31.735,1.6417
31.79,0.052841
31.845,0.000322
31.9,0
31.955,0
32.01,0
32.065,0
32.12,0
32.175,0
32.23,0.0004844
32.285,0.12174
32.34,5.7169
32.395,50.165
32.45,82.252
32.505,25.2
32.56,1.4427
32.615,0.015432
32.67,3.0847e-05
32.725,0
32.78,0
32.835,0
32.89,0
32.945,0
33,0
33.055,0
33.11,0
33.165,0
33.22,5.6761e-05
33.275,0.013732
33.33,0.62073
33.385,5.2432
33.44,8.2754
33.495,2.4406
33.55,0.1345
33.605,0.0013849
33.66,2.6647e-06
33.715,0
33.77,0
33.825,0
33.88,0
33.935,0
33.99,0
34.045,0
34.1,0
34.155,0
34.21,0
34.265,0
34.32,0
34.375,0
34.43,0
34.485,0
34.54,0
34.595,0
34.65,0
34.705,7.9818e-06
34.76,0.0018342
34.815,0.08733
34.87,0.87549
34.925,1.8311
34.98,0.77707
35.035,0.064925
35.09,0.0010442
35.145,3.1884e-06
35.2,0
35.255,4.3518e-08
35.31,2.5974e-05
35.365,0.0028967
35.42,0.060364
35.475,0.23505
35.53,0.17102
35.585,0.023252
35.64,0.00059069
35.695,2.804e-06
35.75,0
35.805,0
35.86,0
35.915,0
35.97,0
36.025,0
36.08,0
36.135,0
36.19,0
36.245,0
36.3,0
36.355,0
36.41,0
36.465,0
36.52,0
36.575,0
36.63,0
36.685,0
36.74,0
36.795,0
36.85,0
36.905,0
36.96,0
37.015,0
37.07,0
37.125,0
37.18,0
37.235,0
37.29,0
37.345,0
37.4,2.5472e-07
37.455,9.2428e-05
37.51,0.0062725
37.565,0.079843
37.62,0.19319
37.675,0.1703
37.73,1.9161
37.785,9.2554
37.84,9.7556
37.895,2.3957
37.95,0.1365
38.005,0.0016761
38.06,4.5716e-06
38.115,0.00027462
38.17,0.025073
38.225,0.46206
38.28,2.3286
38.335,4.9338
38.39,3.2541
38.445,0.45229
38.5,0.011973
38.555,5.9388e-05
38.61,0
38.665,0
38.72,0
38.775,0
38.83,0
38.885,0
38.94,0
38.995,2.8708e-06
39.05,0.00067119
39.105,0.029322
39.16,0.23936
39.215,0.3651
39.27,0.10406
39.325,0.0055419
39.38,5.5149e-05
39.435,1.0255e-07
39.49,0
39.545,0
39.6,0
39.655,0
39.71,0
39.765,0
39.82,0
39.875,0
39.93,0
39.985,0
40.04,0
40.095,1.6122e-06
40.15,0.00099906
40.205,0.11671
40.26,2.6462
40.315,12.174
40.37,12.241
40.425,4.0621
40.48,3.7519
40.535,1.8984
40.59,0.18633
40.645,0.00342
40.7,1.1729e-05
40.755,0
40.81,0
40.865,0
40.92,0
40.975,0
41.03,0
41.085,0
41.14,0
41.195,0
41.25,0
41.305,0
41.36,0
41.415,0
41.47,0
41.525,2.6115e-07
41.58,0.00013954
41.635,0.014226
41.69,0.30524
41.745,1.9241
41.8,4.6447
41.855,3.0546
41.91,0.41069
41.965,0.010484
42.02,5.0137e-05
42.075,0
42.13,0
42.185,0
42.24,0
42.295,0
42.35,0
42.405,0
42.46,0
42.515,0
42.57,0
42.625,4.0061e-06
42.68,0.0018112
42.735,0.15362
42.79,2.5521
42.845,12.812
42.9,48.091
42.955,64.49
43.01,17.742
43.065,2.9682
43.12,2.2762
43.175,0.46189
43.23,0.017592
43.285,0.00012523
43.34,4.0367e-06
43.395,0.00073111
43.45,0.030377
43.505,0.26347
43.56,0.4686
43.615,0.1686
43.67,0.012056
43.725,0.00016822
43.78,4.5098e-07
43.835,0
43.89,0
43.945,0
44,0
44.055,0
44.11,7.9025e-08
44.165,2.3939e-05
44.22,0.001355
44.275,0.014331
44.33,0.028324
44.385,0.01046
44.44,0.00072175
44.495,9.306e-06
44.55,2.2421e-08
44.605,0
44.66,0
44.715,0
44.77,0
44.825,0
44.88,0
44.935,0
44.99,0
45.045,0
45.1,5.093e-10
45.155,3.3139e-07
45.21,9.1305e-05
45.265,0.006485
45.32,0.08993
45.375,0.24394
45.43,0.38011
45.485,1.311
45.54,1.1867
45.595,0.20224
45.65,0.0064414
45.705,3.9568e-05
45.76,0.00046487
45.815,0.032744
45.87,0.43096
45.925,1.0599
45.98,0.48704
46.035,0.041821
46.09,0.00067101
46.145,2.0117e-06
46.2,0
46.255,0
46.31,0
46.365,0
46.42,4.0556e-07
46.475,0.00021079
46.53,0.020541
46.585,0.38085
46.64,1.4397
46.695,1.4042
46.75,0.46964
46.805,0.045305
46.86,0.00093795
46.915,3.7335e-06
46.97,0
47.025,0
47.08,0
47.135,0
47.19,0
47.245,0
47.3,0
47.355,0
47.41,0
47.465,3.096e-08
47.52,1.8326e-05
47.575,0.0020269
47.63,0.04189
47.685,0.16177
47.74,0.11673
47.795,0.015739
47.85,0.00039654
47.905,1.8668e-06
47.96,0
48.015,0
48.07,3.0468e-05
48.125,0.011169
48.18,0.76511
48.235,9.7932
48.29,23.423
48.345,10.468
48.4,0.87413
48.455,0.01364
48.51,3.9769e-05
48.565,0
48.62,0
48.675,0
48.73,7.2892e-07
48.785,0.00022546
48.84,0.014767
48.895,0.19583
48.95,0.50686
49.005,0.25048
49.06,0.023365
49.115,0.00040916
49.17,1.3417e-06
49.225,0
49.28,0
49.335,0
49.39,0
49.445,0
49.5,0
49.555,0
49.61,0
49.665,0
49.72,0.00052878
49.775,0.11813
49.83,4.9318
49.885,38.545
49.94,57.386
49.995,19.111
50.05,3.1472
50.105,1.0693
50.16,0.52186
50.215,0.075597
50.27,0.0025705
50.325,1.8936e-05
50.38,8.2398e-05
50.435,0.0072328
50.49,0.11867
50.545,0.36383
50.6,0.20843
50.655,0.022311
50.71,0.00044626
50.765,1.6679e-06
50.82,0
50.875,0
50.93,0
50.985,0
51.04,2.2391e-05
51.095,0.0041186
51.15,0.14156
51.205,0.90914
51.26,1.091
51.315,0.24465
51.37,0.010251
51.425,8.0257e-05
51.48,1.1741e-07
51.535,0
51.59,0
51.645,0
51.7,0
51.755,0
51.81,0
51.865,0
51.92,8.036e-07
51.975,0.00015172
52.03,0.005451
52.085,0.039313
52.14,0.068725
52.195,0.051402
52.25,0.26229
52.305,1.189
52.36,1.0412
52.415,0.17043
52.47,0.0052605
52.525,0.0055168
52.58,0.19267
52.635,1.6208
52.69,2.8036
52.745,1.0211
52.8,0.095801
52.855,0.0028285
52.91,2.2488e-05
52.965,3.753e-08
53.02,0
53.075,1.6536e-08
53.13,9.8903e-06
53.185,0.0011221
53.24,0.026736
53.295,0.24061
53.35,1.2424
53.405,1.7544
53.46,0.49119
53.515,0.026166
53.57,0.00026386
53.625,5.028e-07
53.68,0
53.735,0
53.79,0
53.845,0
53.9,0
53.955,0
54.01,0
54.065,1.0437e-07
54.12,9.0908e-05
54.175,0.014796
54.23,0.45
54.285,2.5573
54.34,2.7162
54.395,0.54177
54.45,0.022188
54.505,0.00044624
54.56,8.1863e-06
54.615,8.758e-05
54.67,0.024867
54.725,1.3199
54.78,13.091
54.835,24.26
54.89,8.4009
54.945,0.54359
55,0.0065724
55.055,1.4849e-05
55.11,0
55.165,4.5011e-08
55.22,4.7573e-05
55.275,0.0089175
55.33,0.35735
55.385,3.1573
55.44,6.7467
55.495,4.3266
55.55,0.8776
55.605,0.043666
55.66,0.00044096
55.715,8.4781e-07
55.77,0
55.825,0
55.88,0
55.935,0
55.99,0
56.045,0
56.1,0
56.155,0
56.21,1.5231e-06
56.265,0.0003227
56.32,0.012855
56.375,0.10398
56.43,0.3167
56.485,0.70792
56.54,0.45752
56.595,0.057614
56.65,0.0014953
56.705,0.0078307
56.76,0.086593
56.815,0.21843
56.87,0.24884
56.925,0.14061
56.98,0.019201
57.035,0.00050813
57.09,2.529e-06
57.145,0
57.2,0
57.255,0
57.31,0
57.365,0
57.42,0
57.475,0
57.53,0
57.585,0
57.64,0
57.695,0
57.75,0
57.805,0
57.86,0
57.915,0
57.97,0
58.025,0
58.08,0
58.135,9.6833e-07
58.19,0.00031436
58.245,0.019776
58.3,0.26673
58.355,0.94519
58.41,1.2145
58.465,2.8423
58.52,8.9627
58.575,6.7505
58.63,1.0383
58.685,0.034975
58.74,0.11005
58.795,0.67339
58.85,1.1703
58.905,1.695
58.96,0.9922
59.015,0.1176
59.07,0.0026177
59.125,1.0891e-05
59.18,0
59.235,2.0209e-10
59.29,1.8691e-07
59.345,4.1946e-05
59.4,0.0031372
59.455,0.069361
59.51,0.33606
59.565,0.31559
59.62,0.055791
59.675,0.0018457
59.73,1.1412e-05
59.785,0
59.84,0
59.895,0
59.95,0
60.005,0
60.06,1.5286e-07
60.115,5.621e-05
60.17,0.0038938
60.225,0.05602
60.28,0.36492
60.335,1.8256
60.39,2.6018
60.445,2.196
60.5,2.4226
60.555,0.68154
60.61,0.036282
60.665,0.00036109
60.72,6.7151e-07
60.775,0
60.83,0
60.885,0
60.94,0
60.995,0
61.05,0
61.105,0
61.16,0
61.215,1.159e-05
61.27,0.0026517
61.325,0.11344
61.38,0.9111
61.435,1.4178
61.49,0.52086
61.545,0.077904
61.6,0.0045967
61.655,6.2589e-05
61.71,1.6432e-07
61.765,0
61.82,0
61.875,0
61.93,0
61.985,0
62.04,7.631e-07
62.095,0.00047737
62.15,0.0558
62.205,1.2188
62.26,4.9776
62.315,3.8433
62.37,0.86441
62.425,0.71945
62.48,0.32782
62.535,0.029026
62.59,0.00048575
62.645,0.00063473
62.7,0.0196
62.755,0.13221
62.81,0.20248
62.865,0.068868
62.92,0.0048886
62.975,6.8614e-05
63.03,1.8224e-07
63.085,0
63.14,0
63.195,0
63.25,0
63.305,0
63.36,0
63.415,0
63.47,0
63.525,0
63.58,0
63.635,0
63.69,0
63.745,0
63.8,0
63.855,0
63.91,1.149e-08
63.965,5.2112e-06
64.02,0.00044173
64.075,0.0070383
64.13,0.024182
64.185,0.064285
64.24,0.20912
64.295,0.90176
64.35,2.3773
64.405,1.4224
64.46,0.17788
64.515,0.014172
64.57,0.19037
64.625,0.86673
64.68,1.5296
64.735,1.4226
64.79,0.39359
64.845,0.022803
64.9,0.00025369
64.955,5.3063e-07
65.01,1.2463e-07
65.065,6.64e-05
65.12,0.0072058
65.175,0.16444
65.23,0.84025
65.285,1.1724
65.34,0.5749
65.395,0.083781
65.45,0.0026725
65.505,1.6535e-05
65.56,0
65.615,0
65.67,0
65.725,0
65.78,1.3251e-07
65.835,8.3812e-05
65.89,0.0099063
65.945,0.21914
66,0.92853
66.055,1.0359
66.11,1.0206
66.165,0.51976
66.22,0.059371
66.275,0.0013843
66.33,0.0027566
66.385,0.05288
66.44,0.18996
66.495,0.12751
66.55,0.015993
66.605,0.00037482
66.66,1.6414e-06
66.715,0
66.77,0
66.825,0
66.88,3.8197e-08
66.935,2.9401e-05
66.99,0.0043235
67.045,0.12949
67.1,0.91267
67.155,1.7683
67.21,0.89341
67.265,0.098722
67.32,0.0021477
67.375,8.8443e-06
67.43,0
67.485,0
67.54,0
67.595,0
67.65,0
67.705,1.7001e-05
67.76,0.0055614
67.815,0.3404
67.87,3.9307
67.925,9.0428
67.98,5.4797
68.035,1.5746
68.09,0.41415
68.145,0.11971
68.2,0.010987
68.255,0.003883
68.31,0.038945
68.365,0.1713
68.42,0.40532
68.475,0.26232
68.53,0.034723
68.585,0.00090295
68.64,4.577e-06
68.695,0
68.75,0
68.805,2.0383e-05
68.86,0.0050581
68.915,0.23454
68.97,2.0322
69.025,3.2902
69.08,0.99535
69.135,0.056265
69.19,0.00059431
69.245,1.173e-06
69.3,0
69.355,0
69.41,0
69.465,0
69.52,2.5043e-08
69.575,1.3226e-05
69.63,0.0014722
69.685,0.045685
69.74,0.47348
69.795,1.3105
69.85,1.0947
69.905,0.9874
69.96,0.41374
70.015,0.034897
70.07,0.00057152
70.125,0.00094365
70.18,0.0084656
70.235,0.014215
70.29,0.0044604
70.345,0.00026151
70.4,2.8649e-06
70.455,5.8647e-09
70.51,1.8465e-09
70.565,1.6332e-06
70.62,0.00027655
70.675,0.0097106
70.73,0.10147
70.785,0.43914
70.84,0.53561
70.895,0.13346
70.95,0.0063032
71.005,5.5745e-05
71.06,9.2148e-08
71.115,0
71.17,0
71.225,0
71.28,3.883e-08
71.335,1.9187e-05
71.39,0.0017885
71.445,0.034261
71.5,0.24837
71.555,1.1938
71.61,1.6129
71.665,0.42638
71.72,0.021412
71.775,0.011465
71.83,0.56014
71.885,5.2132
71.94,9.4582
71.995,8.8127
72.05,15.896
72.105,7.8587
72.16,0.73384
72.215,0.012808
72.27,4.6402e-05
72.325,0.001024
72.38,0.042308
72.435,0.3287
72.49,0.51541
72.545,0.28355
72.6,0.11166
72.655,0.01396
72.71,0.00036937
72.765,2.0108e-06
72.82,1.5523e-09
72.875,0
72.93,0
72.985,0
73.04,0
73.095,0
73.15,0
73.205,0
73.26,2.8116e-07
73.315,0.00014487
73.37,0.014561
73.425,0.28528
73.48,1.0848
73.535,0.79574
73.59,0.11185
73.645,0.0036544
73.7,0.0026161
73.755,0.002216
73.81,0.00055967
73.865,4.8674e-05
73.92,1.0732e-06
73.975,4.7619e-09
74.03,0
74.085,0
74.14,0
74.195,0
74.25,0
74.305,0
74.36,0
74.415,0
74.47,0
74.525,0
74.58,0
74.635,0
74.69,0
74.745,0
74.8,0
74.855,7.1705e-08
74.91,2.4105e-05
74.965,0.0015255
75.02,0.019513
75.075,0.092275
75.13,0.36133
75.185,0.45355
75.24,0.15154
75.295,0.084812
75.35,0.030983
75.405,0.0035655
75.46,0.046041
75.515,0.42517
75.57,1.0505
75.625,0.6319
75.68,0.093773
75.735,0.0037632
75.79,3.8961e-05
75.845,2.3505e-05
75.9,0.0020776
75.955,0.034441
76.01,0.10707
76.065,0.083142
76.12,0.22227
76.175,0.4059
76.23,0.14271
76.285,0.0093779
76.34,0.00011515
76.395,2.6422e-07
76.45,0
76.505,0
76.56,8.8964e-07
76.615,0.00023904
76.67,0.012001
76.725,0.11259
76.78,0.19843
76.835,0.11618
76.89,0.49251
76.945,0.95949
77,0.49014
77.055,0.1169
77.11,0.011561
77.165,0.00026292
77.22,1.152e-06
77.275,0
77.33,0
77.385,0
77.44,0
77.495,0
77.55,1.0498e-07
77.605,3.8305e-05
77.66,0.0026255
77.715,0.036823
77.77,0.2517
77.825,1.6621
77.88,3.0498
77.935,1.2256
77.99,0.12241
78.045,0.0032667
78.1,2.0822e-05
78.155,2.6964e-08
78.21,0
78.265,0
78.32,0
78.375,0
78.43,3.1056e-09
78.485,4.6286e-05
78.54,0.008664
78.595,0.30511
78.65,2.0223
78.705,2.5543
78.76,0.79611
78.815,0.26333
78.87,0.053919
78.925,0.028154
78.98,0.073244
79.035,0.096911
79.09,0.1603
79.145,0.096085
79.2,0.013794
79.255,0.00042026
79.31,2.5393e-06
79.365,0
79.42,1.0703e-07
79.475,6.4702e-05
79.53,0.007309
79.585,0.15428
79.64,0.6085
79.695,0.44846
79.75,0.061758
79.805,0.0015892
79.86,7.641e-06
79.915,0
79.97,0
80,0