File: Fig S2/FigS2_C_XRD_ACBC_x06.csv
Bragg_angle,Intensity
\circ,a.u.
5,290
5.1,257
5.2,287
5.3,248
5.4,248
5.5,279
5.6,270
5.7,250
5.8,275
5.9,259
6,234
6.1,239
6.2,268
6.3,258
6.4,260
6.5,271
6.6,294
6.7,243
6.8,235
6.9,239
7,239
7.1,207
7.2,222
7.3,224
7.4,193
7.5,219
7.6,209
7.7,213
7.8,197
7.9,211
8,176
8.1,214
8.2,194
8.3,175
8.4,187
8.5,194
8.6,182
8.7,198
8.8,216
8.9,232
9,240
9.1,248
9.2,253
9.3,302
9.4,303
9.5,309
9.6,316
9.7,295
9.8,362
9.9,329
10,320
10.1,304
10.2,325
10.3,312
10.4,276
10.5,223
10.6,204
10.7,186
10.8,209
10.9,183
11,172
11.1,147
11.2,154
11.3,154
11.4,174
11.5,172
11.6,153
11.7,138
11.8,157
11.9,143
12,159
12.1,150
12.2,149
12.3,164
12.4,155
12.5,173
12.6,143
12.7,151
12.8,153
12.9,165
13,147
13.1,164
13.2,132
13.3,139
13.4,134
13.5,157
13.6,164
13.7,118
13.8,140
13.9,154
14,113
14.1,129
14.2,136
14.3,134
14.4,141
14.5,125
14.6,154
14.7,144
14.8,131
14.9,141
15,141
15.1,145
15.2,132
15.3,127
15.4,156
15.5,139
15.6,140
15.7,158
15.8,138
15.9,126
16,124
16.1,132
16.2,112
16.3,124
16.4,150
16.5,136
16.6,131
16.7,131
16.8,121
16.9,124
17,138
17.1,124
17.2,123
17.3,128
17.4,145
17.5,123
17.6,125
17.7,128
17.8,126
17.9,128
18,121
18.1,120
18.2,120
18.3,142
18.4,125
18.5,121
18.6,116
18.7,116
18.8,109
18.9,107
19,122
19.1,131
19.2,119
19.3,112
19.4,107
19.5,131
19.6,100
19.7,87
19.8,133
19.9,133
20,105
20.1,105
20.2,109
20.3,117
20.4,117
20.5,128
20.6,109
20.7,108
20.8,150
20.9,174
21,200
21.1,348
21.2,355
21.3,160
21.4,132
21.5,104
21.6,107
21.7,110
21.8,130
21.9,124
22,102
22.1,109
22.2,116
22.3,111
22.4,134
22.5,129
22.6,117
22.7,135
22.8,130
22.9,148
23,240
23.1,472
23.2,531
23.3,211
23.4,117
23.5,108
23.6,112
23.7,115
23.8,133
23.9,107
24,121
24.1,121
24.2,137
24.3,147
24.4,117
24.5,146
24.6,188
24.7,185
24.8,290
24.9,454
25,649
25.1,722
25.2,480
25.3,284
25.4,180
25.5,169
25.6,161
25.7,148
25.8,135
25.9,106
26,128
26.1,124
26.2,124
26.3,115
26.4,146
26.5,188
26.6,183
26.7,165
26.8,218
26.9,260
27,442
27.1,729
27.2,1115
27.3,1009
27.4,679
27.5,405
27.6,214
27.7,171
27.8,142
27.9,166
28,130
28.1,142
28.2,125
28.3,156
28.4,144
28.5,143
28.6,137
28.7,151
28.8,177
28.9,199
29,185
29.1,384
29.2,691
29.3,1285
29.4,2576
29.5,3189
29.6,1174
29.7,259
29.8,199
29.9,161
30,154
30.1,135
30.2,129
30.3,123
30.4,139
30.5,137
30.6,119
30.7,106
30.8,137
30.9,110
31,118
31.1,122
31.2,129
31.3,148
31.4,134
31.5,128
31.6,116
31.7,123
31.8,156
31.9,148
32,129
32.1,136
32.2,149
32.3,150
32.4,188
32.5,230
32.6,277
32.7,426
32.8,744
32.9,1066
33,1030
33.1,669
33.2,415
33.3,240
33.4,212
33.5,170
33.6,147
33.7,136
33.8,135
33.9,134
34,137
34.1,106
34.2,112
34.3,116
34.4,108
34.5,109
34.6,105
34.7,118
34.8,104
34.9,108
35,101
35.1,96
35.2,97
35.3,108
35.4,103
35.5,93
35.6,140
35.7,106
35.8,134
35.9,179
36,429
36.1,672
36.2,313
36.3,134
36.4,101
36.5,103
36.6,97
36.7,88
36.8,101
36.9,83
37,84
37.1,89
37.2,84
37.3,89
37.4,82
37.5,88
37.6,79
37.7,86
37.8,77
37.9,100
38,95
38.1,91
38.2,108
38.3,108
38.4,91
38.5,121
38.6,115
38.7,127
38.8,140
38.9,152
39,166
39.1,149
39.2,188
39.3,226
39.4,421
39.5,664
39.6,438
39.7,204
39.8,137
39.9,133
40,135
40.1,147
40.2,128
40.3,125
40.4,124
40.5,137
40.6,103
40.7,111
40.8,125
40.9,138
41,122
41.1,111
41.2,106
41.3,104
41.4,97
41.5,99
41.6,108
41.7,117
41.8,119
41.9,115
42,113
42.1,125
42.2,113
42.3,131
42.4,113
42.5,112
42.6,129
42.7,154
42.8,209
42.9,203
43,234
43.1,343
43.2,730
43.3,641
43.4,327
43.5,171
43.6,197
43.7,278
43.8,376
43.9,515
44,618
44.1,506
44.2,365
44.3,256
44.4,165
44.5,149
44.6,139
44.7,127
44.8,107
44.9,115
45,104
45.1,111
45.2,99
45.3,115
45.4,92
45.5,112
45.6,88
45.7,87
45.8,98
45.9,104
46,85
46.1,95
46.2,86
46.3,95
46.4,96
46.5,97
46.6,119
46.7,108
46.8,143
46.9,150
47,218
47.1,334
47.2,405
47.3,369
47.4,385
47.5,391
47.6,249
47.7,174
47.8,108
47.9,124
48,141
48.1,158
48.2,211
48.3,270
48.4,449
48.5,589
48.6,493
48.7,298
48.8,138
48.9,167
49,212
49.1,230
49.2,274
49.3,301
49.4,223
49.5,187
49.6,142
49.7,152
49.8,171
49.9,212
50,340
50.1,472
50.2,594
50.3,529
50.4,387
50.5,199
50.6,163
50.7,120
50.8,98
50.9,96
51,97
51.1,117
51.2,119
51.3,117
51.4,84
51.5,92
51.6,71
51.7,77
51.8,71
51.9,90
52,76
52.1,71
52.2,78
52.3,71
52.4,84
52.5,98
52.6,91
52.7,72
52.8,86
52.9,69
53,65
53.1,55
53.2,65
53.3,68
53.4,78
53.5,80
53.6,61
53.7,69
53.8,61
53.9,66
54,78
54.1,75
54.2,86
54.3,74
54.4,88
54.5,68
54.6,87
54.7,74
54.8,75
54.9,70
55,73
55.1,87
55.2,67
55.3,77
55.4,101
55.5,121
55.6,116
55.7,164
55.8,207
55.9,222
56,237
56.1,195
56.2,147
56.3,118
56.4,119
56.5,131
56.6,165
56.7,140
56.8,111
56.9,99
57,71
57.1,91
57.2,138
57.3,192
57.4,357
57.5,330
57.6,201
57.7,134
57.8,102
57.9,83
58,86
58.1,71
58.2,71
58.3,74
58.4,57
58.5,65
58.6,56
58.7,59
58.8,76
58.9,62
59,51
59.1,54
59.2,64
59.3,71
59.4,48
59.5,70
59.6,67
59.7,83
59.8,77
59.9,81
60,92
60.1,103
60.2,79
60.3,95
60.4,129
60.5,142
60.6,234
60.7,235
60.8,196
60.9,170
61,125
61.1,116
61.2,93
61.3,103
61.4,102
61.5,86
61.6,66
61.7,63
61.8,79
61.9,63
62,51
62.1,52
62.2,56
62.3,56
62.4,70
62.5,62
62.6,69
62.7,76
62.8,100
62.9,111
63,156
63.1,113
63.2,111
63.3,90
63.4,75
63.5,69
63.6,64
63.7,52
63.8,54
63.9,54
64,51
64.1,45
64.2,56
64.3,85
64.4,80
64.5,80
64.6,146
64.7,205
64.8,156
64.9,135
65,89
65.1,79
65.2,58
65.3,77
65.4,73
65.5,95
65.6,70
65.7,62
65.8,71
65.9,53
66,58
66.1,56
66.2,55
66.3,64
66.4,60
66.5,52
66.6,73
66.7,60
66.8,47
66.9,61
67,59
67.1,57
67.2,53
67.3,46
67.4,57
67.5,62
67.6,60
67.7,69
67.8,58
67.9,73
68,65
68.1,67
68.2,48
68.3,74
68.4,87
68.5,62
68.6,87
68.7,99
68.8,100
68.9,96
69,97
69.1,93
69.2,81
69.3,73
69.4,74
69.5,81
69.6,75
69.7,84
69.8,76
69.9,72
70,97
70.1,89
70.2,68
70.3,64
70.4,62
70.5,67
70.6,50
70.7,84
70.8,46
70.9,64
71,64
71.1,60
71.2,68
71.3,60
71.4,49
71.5,57
71.6,72
71.7,72
71.8,90
71.9,118
72,118
72.1,107
72.2,111
72.3,106
72.4,88
72.5,84
72.6,102
72.7,112
72.8,98
72.9,93
73,81
73.1,91
73.2,73
73.3,115
73.4,108
73.5,116
73.6,120
73.7,145
73.8,149
73.9,100
74,103
74.1,74
74.2,69
74.3,60
74.4,60
74.5,51
74.6,52
74.7,55
74.8,51
74.9,48
75,58
75.1,51
75.2,55
75.3,53
75.4,64
75.5,53
75.6,54
75.7,47
75.8,50
75.9,57
76,56
76.1,74
76.2,94
76.3,93
76.4,73
76.5,79
76.6,54
76.7,83
76.8,74
76.9,88
77,63
77.1,62
77.2,66
77.3,50
77.4,46
77.5,50
77.6,51
77.7,52
77.8,47
77.9,39
78,45
78.1,53
78.2,64
78.3,66
78.4,62
78.5,54
78.6,59
78.7,57
78.8,64
78.9,66
79,53
79.1,48
79.2,44
79.3,46
79.4,50
79.5,63
79.6,45
79.7,45
79.8,48
79.9,56
80,41