File: Fig S2/FigS2_C_XRD_ACBC_x13.csv
Bragg_angle,Intensity
\circ,a.u.
4.87,275
4.97,283
5.07,258
5.17,294
5.27,292
5.37,267
5.47,241
5.57,264
5.67,250
5.77,256
5.87,259
5.97,289
6.07,273
6.17,284
6.27,255
6.37,272
6.47,289
6.57,285
6.67,253
6.77,250
6.87,218
6.97,203
7.07,175
7.17,226
7.27,194
7.37,198
7.47,213
7.57,224
7.67,191
7.77,176
7.87,181
7.97,204
8.07,198
8.17,184
8.27,181
8.37,177
8.47,186
8.57,204
8.67,209
8.77,232
8.87,223
8.97,242
9.07,296
9.17,334
9.27,327
9.37,361
9.47,360
9.57,360
9.67,339
9.77,345
9.87,355
9.97,332
10.07,322
10.17,292
10.27,282
10.37,239
10.47,180
10.57,202
10.67,178
10.77,200
10.87,165
10.97,177
11.07,153
11.17,147
11.27,137
11.37,140
11.47,129
11.57,148
11.67,157
11.77,156
11.87,159
11.97,129
12.07,139
12.17,145
12.27,135
12.37,141
12.47,147
12.57,147
12.67,162
12.77,138
12.87,169
12.97,161
13.07,146
13.17,168
13.27,156
13.37,178
13.47,127
13.57,156
13.67,160
13.77,140
13.87,137
13.97,129
14.07,139
14.17,141
14.27,145
14.37,127
14.47,158
14.57,157
14.67,138
14.77,151
14.87,175
14.97,179
15.07,156
15.17,152
15.27,133
15.37,156
15.47,148
15.57,178
15.67,164
15.77,164
15.87,150
15.97,170
16.07,121
16.17,163
16.27,182
16.37,150
16.47,151
16.57,156
16.67,148
16.77,151
16.87,162
16.97,149
17.07,156
17.17,146
17.27,164
17.37,131
17.47,130
17.57,104
17.67,113
17.77,110
17.87,119
17.97,125
18.07,118
18.17,133
18.27,130
18.37,113
18.47,137
18.57,131
18.67,133
18.77,137
18.87,146
18.97,115
19.07,105
19.17,120
19.27,121
19.37,127
19.47,136
19.57,132
19.67,114
19.77,118
19.87,117
19.97,122
20.07,124
20.17,145
20.27,126
20.37,140
20.47,113
20.57,127
20.67,118
20.77,137
20.87,154
20.97,169
21.07,133
21.17,132
21.27,130
21.37,126
21.47,116
21.57,108
21.67,126
21.77,89
21.87,118
21.97,125
22.07,105
22.17,122
22.27,137
22.37,120
22.47,151
22.57,149
22.67,169
22.77,339
22.87,703
22.97,447
23.07,191
23.17,112
23.27,105
23.37,110
23.47,125
23.57,113
23.67,101
23.77,113
23.87,105
23.97,101
24.07,102
24.17,107
24.27,105
24.37,112
24.47,120
24.57,133
24.67,169
24.77,164
24.87,211
24.97,193
25.07,150
25.17,111
25.27,121
25.37,123
25.47,108
25.57,105
25.67,109
25.77,95
25.87,119
25.97,102
26.07,129
26.17,138
26.27,130
26.37,118
26.47,118
26.57,102
26.67,146
26.77,147
26.87,236
26.97,264
27.07,235
27.17,217
27.27,174
27.37,134
27.47,125
27.57,102
27.67,111
27.77,107
27.87,111
27.97,129
28.07,124
28.17,139
28.27,148
28.37,154
28.47,152
28.57,164
28.67,210
28.77,257
28.87,556
28.97,1781
29.07,3900
29.17,2528
29.27,911
29.37,323
29.47,155
29.57,175
29.67,122
29.77,119
29.87,113
29.97,112
30.07,105
30.17,94
30.27,104
30.37,104
30.47,103
30.57,82
30.67,99
30.77,100
30.87,118
30.97,121
31.07,101
31.17,111
31.27,82
31.37,116
31.47,90
31.57,89
31.67,99
31.77,100
31.87,87
31.97,109
32.07,110
32.17,98
32.27,109
32.37,120
32.47,145
32.57,207
32.67,277
32.77,277
32.87,249
32.97,167
33.07,122
33.17,108
33.27,106
33.37,93
33.47,83
33.57,97
33.67,103
33.77,92
33.87,98
33.97,93
34.07,86
34.17,86
34.27,97
34.37,81
34.47,86
34.57,102
34.67,91
34.77,95
34.87,85
34.97,116
35.07,104
35.17,107
35.27,91
35.37,105
35.47,99
35.57,168
35.67,259
35.77,533
35.87,483
35.97,205
36.07,131
36.17,99
36.27,96
36.37,95
36.47,95
36.57,94
36.67,83
36.77,92
36.87,86
36.97,83
37.07,84
37.17,90
37.27,73
37.37,87
37.47,94
37.57,86
37.67,77
37.77,88
37.87,109
37.97,90
38.07,93
38.17,89
38.27,93
38.37,72
38.47,92
38.57,88
38.67,99
38.77,111
38.87,106
38.97,136
39.07,250
39.17,325
39.27,246
39.37,163
39.47,114
39.57,100
39.67,114
39.77,87
39.87,96
39.97,100
40.07,84
40.17,113
40.27,86
40.37,84
40.47,90
40.57,99
40.67,95
40.77,109
40.87,100
40.97,80
41.07,97
41.17,93
41.27,85
41.37,100
41.47,87
41.57,86
41.67,105
41.77,87
41.87,87
41.97,96
42.07,111
42.17,79
42.27,98
42.37,104
42.47,127
42.57,167
42.67,180
42.77,274
42.87,556
42.97,545
43.07,347
43.17,167
43.27,123
43.37,102
43.47,104
43.57,153
43.67,152
43.77,159
43.87,173
43.97,126
44.07,127
44.17,100
44.27,100
44.37,119
44.47,111
44.57,105
44.67,97
44.77,94
44.87,98
44.97,96
45.07,76
45.17,89
45.27,81
45.37,79
45.47,89
45.57,94
45.67,97
45.77,75
45.87,95
45.97,88
46.07,82
46.17,108
46.27,124
46.37,130
46.47,150
46.57,255
46.67,662
46.77,958
46.87,779
46.97,481
47.07,306
47.17,218
47.27,153
47.37,109
47.47,118
47.57,119
47.67,149
47.77,162
47.87,383
47.97,630
48.07,560
48.17,388
48.27,236
48.37,171
48.47,108
48.57,110
48.67,105
48.77,105
48.87,96
48.97,100
49.07,110
49.17,106
49.27,79
49.37,97
49.47,89
49.57,89
49.67,97
49.77,106
49.87,158
49.97,180
50.07,185
50.17,129
50.27,123
50.37,84
50.47,80
50.57,73
50.67,73
50.77,67
50.87,72
50.97,71
51.07,68
51.17,68
51.27,55
51.37,66
51.47,51
51.57,74
51.67,57
51.77,72
51.87,56
51.97,56
52.07,53
52.17,59
52.27,60
52.37,57
52.47,61
52.57,58
52.67,51
52.77,48
52.87,61
52.97,49
53.07,50
53.17,57
53.27,61
53.37,59
53.47,43
53.57,70
53.67,62
53.77,51
53.87,59
53.97,72
54.07,61
54.17,60
54.27,62
54.37,56
54.47,53
54.57,50
54.67,65
54.77,47
54.87,57
54.97,62
55.07,52
55.17,66
55.27,80
55.37,59
55.47,74
55.57,93
55.67,75
55.77,88
55.87,82
55.97,92
56.07,68
56.17,72
56.27,94
56.37,91
56.47,67
56.57,71
56.67,60
56.77,85
56.87,96
56.97,210
57.07,322
57.17,305
57.27,200
57.37,130
57.47,97
57.57,62
57.67,52
57.77,43
57.87,47
57.97,49
58.07,47
58.17,42
58.27,44
58.37,45
58.47,59
58.57,48
58.67,49
58.77,48
58.87,71
58.97,44
59.07,61
59.17,58
59.27,55
59.37,60
59.47,64
59.57,59
59.67,56
59.77,58
59.87,62
59.97,85
60.07,100
60.17,190
60.27,262
60.37,234
60.47,172
60.57,173
60.67,109
60.77,77
60.87,80
60.97,67
61.07,68
61.17,69
61.27,52
61.37,65
61.47,59
61.57,57
61.67,54
61.77,49
61.87,56
61.97,52
62.07,56
62.17,57
62.27,47
62.37,66
62.47,85
62.57,81
62.67,90
62.77,71
62.87,63
62.97,58
63.07,65
63.17,50
63.27,66
63.37,52
63.47,67
63.57,56
63.67,58
63.77,54
63.87,63
63.97,74
64.07,77
64.17,103
64.27,202
64.37,186
64.47,185
64.57,117
64.67,95
64.77,103
64.87,63
64.97,73
65.07,60
65.17,62
65.27,63
65.37,53
65.47,51
65.57,53
65.67,48
65.77,60
65.87,50
65.97,56
66.07,39
66.17,42
66.27,53
66.37,47
66.47,41
66.57,55
66.67,61
66.77,61
66.87,60
66.97,45
67.07,44
67.17,44
67.27,46
67.37,55
67.47,52
67.57,50
67.67,53
67.77,65
67.87,37
67.97,58
68.07,55
68.17,65
68.27,60
68.37,58
68.47,69
68.57,64
68.67,68
68.77,81
68.87,67
68.97,72
69.07,69
69.17,93
69.27,95
69.37,97
69.47,92
69.57,83
69.67,61
69.77,60
69.87,59
69.97,45
70.07,48
70.17,55
70.27,55
70.37,51
70.47,52
70.57,59
70.67,45
70.77,56
70.87,54
70.97,49
71.07,55
71.17,61
71.27,46
71.37,57
71.47,83
71.57,62
71.67,68
71.77,66
71.87,98
71.97,103
72.07,137
72.17,126
72.27,109
72.37,89
72.47,86
72.57,63
72.67,57
72.77,68
72.87,79
72.97,88
73.07,92
73.17,95
73.27,89
73.37,83
73.47,57
73.57,69
73.67,56
73.77,59
73.87,54
73.97,48
74.07,47
74.17,59
74.27,52
74.37,42
74.47,54
74.57,59
74.67,48
74.77,44
74.87,57
74.97,46
75.07,52
75.17,52
75.27,76
75.37,53
75.47,54
75.57,66
75.67,95
75.77,115
75.87,130
75.97,124
76.07,106
76.17,94
76.27,58
76.37,59
76.47,50
76.57,49
76.67,46
76.77,58
76.87,36
76.97,53
77.07,48
77.17,35
77.27,49
77.37,44
77.47,43
77.57,42
77.67,42
77.77,46
77.87,46
77.97,53
78.07,41
78.17,38
78.27,42
78.37,40
78.47,46
78.57,37
78.67,48
78.77,41
78.87,37
78.97,45
79.07,43
79.17,28
79.27,36
79.37,40
79.47,37
79.57,42
79.67,55
79.77,31
79.87,43