File: Fig S2/FigS2_A_XRD_mixture_x5.csv
Bragg_angle,Intensity
\circ,a.u.
5,226
5.06,262
5.12,242
5.18,229
5.24,239
5.3,231
5.36,252
5.42,248
5.48,232
5.54,209
5.6,244
5.66,260
5.72,197
5.78,206
5.84,190
5.9,167
5.96,164
6.02,173
6.08,167
6.14,168
6.2,177
6.26,171
6.32,169
6.38,199
6.44,178
6.5,149
6.56,172
6.62,164
6.68,170
6.74,159
6.8,157
6.86,160
6.92,173
6.98,182
7.04,168
7.1,184
7.16,139
7.22,163
7.28,152
7.34,132
7.4,175
7.46,172
7.52,163
7.58,174
7.64,172
7.7,172
7.76,172
7.82,171
7.88,171
7.94,177
8,167
8.06,150
8.12,156
8.18,163
8.24,163
8.3,167
8.36,126
8.42,149
8.48,148
8.54,135
8.6,138
8.66,127
8.72,141
8.78,163
8.84,152
8.9,172
8.96,168
9.02,192
9.08,189
9.14,214
9.2,240
9.26,250
9.32,229
9.38,256
9.44,264
9.5,246
9.56,270
9.62,263
9.68,284
9.74,299
9.8,257
9.86,285
9.92,266
9.98,256
10.04,271
10.1,238
10.16,228
10.22,250
10.28,212
10.34,211
10.4,198
10.46,175
10.52,174
10.58,148
10.64,123
10.7,121
10.76,141
10.82,117
10.88,126
10.94,110
11,112
11.06,133
11.12,129
11.18,133
11.24,119
11.3,119
11.36,105
11.42,123
11.48,133
11.54,125
11.6,121
11.66,128
11.72,125
11.78,112
11.84,104
11.9,121
11.96,114
12.02,112
12.08,110
12.14,112
12.2,120
12.26,131
12.32,123
12.38,98
12.44,105
12.5,126
12.56,128
12.62,122
12.68,108
12.74,124
12.8,125
12.86,132
12.92,126
12.98,119
13.04,129
13.1,128
13.16,104
13.22,137
13.28,104
13.34,112
13.4,114
13.46,134
13.52,123
13.58,101
13.64,118
13.7,108
13.76,105
13.82,117
13.88,105
13.94,123
14,114
14.06,109
14.12,129
14.18,118
14.24,96
14.3,89
14.36,109
14.42,84
14.48,119
14.54,131
14.6,115
14.66,111
14.72,110
14.78,121
14.84,113
14.9,100
14.96,105
15.02,114
15.08,109
15.14,110
15.2,91
15.26,151
15.32,105
15.38,128
15.44,122
15.5,104
15.56,114
15.62,106
15.68,118
15.74,149
15.8,99
15.86,107
15.92,113
15.98,105
16.04,117
16.1,103
16.16,94
16.22,101
16.28,128
16.34,102
16.4,90
16.46,100
16.52,91
16.58,91
16.64,103
16.7,125
16.76,92
16.82,103
16.88,103
16.94,108
17,85
17.06,107
17.12,109
17.18,101
17.24,91
17.3,103
17.36,81
17.42,105
17.48,87
17.54,80
17.6,120
17.66,96
17.72,107
17.78,87
17.84,99
17.9,92
17.96,92
18.02,84
18.08,94
18.14,75
18.2,85
18.26,74
18.32,72
18.38,87
18.44,83
18.5,85
18.56,98
18.62,93
18.68,79
18.74,70
18.8,79
18.86,84
18.92,87
18.98,104
19.04,65
19.1,90
19.16,102
19.22,112
19.28,125
19.34,147
19.4,136
19.46,270
19.52,424
19.58,613
19.64,630
19.7,405
19.76,260
19.82,269
19.88,230
19.94,263
20,285
20.06,263
20.12,214
20.18,164
20.24,97
20.3,102
20.36,96
20.42,104
20.48,99
20.54,78
20.6,78
20.66,76
20.72,93
20.78,83
20.84,82
20.9,92
20.96,75
21.02,88
21.08,87
21.14,90
21.2,78
21.26,79
21.32,85
21.38,74
21.44,64
21.5,81
21.56,83
21.62,102
21.68,122
21.74,96
21.8,90
21.86,83
21.92,82
21.98,100
22.04,91
22.1,84
22.16,81
22.22,100
22.28,86
22.34,83
22.4,90
22.46,75
22.52,74
22.58,77
22.64,72
22.7,88
22.76,68
22.82,65
22.88,80
22.94,79
23,75
23.06,96
23.12,108
23.18,133
23.24,147
23.3,134
23.36,126
23.42,103
23.48,117
23.54,103
23.6,137
23.66,199
23.72,230
23.78,308
23.84,588
23.9,934
23.96,1809
24.02,3487
24.08,4266
24.14,2829
24.2,1819
24.26,1497
24.32,1513
24.38,1626
24.44,1597
24.5,1099
24.56,552
24.62,322
24.68,208
24.74,160
24.8,167
24.86,143
24.92,142
24.98,118
25.04,116
25.1,83
25.16,99
25.22,102
25.28,95
25.34,69
25.4,83
25.46,89
25.52,93
25.58,80
25.64,96
25.7,94
25.76,87
25.82,81
25.88,81
25.94,85
26,89
26.06,85
26.12,74
26.18,94
26.24,77
26.3,80
26.36,71
26.42,75
26.48,79
26.54,74
26.6,91
26.66,96
26.72,103
26.78,80
26.84,80
26.9,90
26.96,58
27.02,84
27.08,70
27.14,51
27.2,64
27.26,67
27.32,63
27.38,72
27.44,72
27.5,85
27.56,84
27.62,98
27.68,109
27.74,146
27.8,261
27.86,503
27.92,393
27.98,243
28.04,106
28.1,74
28.16,78
28.22,70
28.28,68
28.34,63
28.4,75
28.46,66
28.52,71
28.58,62
28.64,60
28.7,80
28.76,70
28.82,56
28.88,71
28.94,69
29,80
29.06,77
29.12,63
29.18,69
29.24,94
29.3,110
29.36,173
29.42,277
29.48,535
29.54,1296
29.6,1156
29.66,655
29.72,230
29.78,169
29.84,124
29.9,83
29.96,86
30.02,101
30.08,95
30.14,52
30.2,67
30.26,67
30.32,74
30.38,66
30.44,76
30.5,75
30.56,75
30.62,88
30.68,82
30.74,59
30.8,67
30.86,64
30.92,68
30.98,66
31.04,66
31.1,77
31.16,76
31.22,75
31.28,66
31.34,71
31.4,70
31.46,66
31.52,61
31.58,98
31.64,90
31.7,83
31.76,68
31.82,82
31.88,61
31.94,66
32,74
32.06,75
32.12,74
32.18,63
32.24,72
32.3,83
32.36,60
32.42,72
32.48,72
32.54,89
32.6,73
32.66,106
32.72,98
32.78,86
32.84,86
32.9,89
32.96,63
33.02,80
33.08,80
33.14,82
33.2,100
33.26,90
33.32,109
33.38,100
33.44,87
33.5,122
33.56,130
33.62,159
33.68,183
33.74,257
33.8,377
33.86,510
33.92,470
33.98,545
34.04,539
34.1,509
34.16,655
34.22,905
34.28,1000
34.34,857
34.4,718
34.46,756
34.52,809
34.58,796
34.64,1007
34.7,1221
34.76,1242
34.82,857
34.88,510
34.94,292
35,171
35.06,137
35.12,109
35.18,108
35.24,86
35.3,62
35.36,85
35.42,73
35.48,71
35.54,75
35.6,69
35.66,73
35.72,63
35.78,51
35.84,47
35.9,81
35.96,79
36.02,85
36.08,154
36.14,153
36.2,107
36.26,93
36.32,67
36.38,74
36.44,72
36.5,56
36.56,58
36.62,65
36.68,64
36.74,70
36.8,59
36.86,69
36.92,54
36.98,50
37.04,58
37.1,65
37.16,52
37.22,59
37.28,59
37.34,49
37.4,52
37.46,46
37.52,51
37.58,60
37.64,47
37.7,50
37.76,62
37.82,72
37.88,84
37.94,90
38,75
38.06,73
38.12,61
38.18,66
38.24,81
38.3,70
38.36,63
38.42,58
38.48,59
38.54,51
38.6,60
38.66,51
38.72,58
38.78,57
38.84,69
38.9,82
38.96,61
39.02,68
39.08,62
39.14,67
39.2,77
39.26,65
39.32,84
39.38,103
39.44,141
39.5,217
39.56,471
39.62,473
39.68,450
39.74,363
39.8,191
39.86,143
39.92,115
39.98,107
40.04,72
40.1,99
40.16,79
40.22,97
40.28,94
40.34,86
40.4,95
40.46,94
40.52,138
40.58,149
40.64,150
40.7,132
40.76,109
40.82,80
40.88,70
40.94,60
41,75
41.06,64
41.12,65
41.18,59
41.24,54
41.3,68
41.36,56
41.42,84
41.48,72
41.54,70
41.6,67
41.66,68
41.72,83
41.78,98
41.84,124
41.9,185
41.96,269
42.02,486
42.08,839
42.14,1266
42.2,1121
42.26,965
42.32,642
42.38,357
42.44,297
42.5,243
42.56,218
42.62,170
42.68,187
42.74,217
42.8,207
42.86,265
42.92,299
42.98,329
43.04,398
43.1,449
43.16,449
43.22,367
43.28,315
43.34,245
43.4,167
43.46,142
43.52,90
43.58,82
43.64,81
43.7,91
43.76,69
43.82,82
43.88,75
43.94,74
44,72
44.06,74
44.12,98
44.18,148
44.24,197
44.3,281
44.36,323
44.42,307
44.48,339
44.54,301
44.6,270
44.66,238
44.72,257
44.78,272
44.84,358
44.9,430
44.96,618
45.02,733
45.08,736
45.14,484
45.2,312
45.26,169
45.32,128
45.38,94
45.44,87
45.5,89
45.56,76
45.62,72
45.68,64
45.74,58
45.8,62
45.86,53
45.92,62
45.98,50
46.04,63
46.1,57
46.16,60
46.22,52
46.28,68
46.34,56
46.4,59
46.46,63
46.52,77
46.58,69
46.64,82
46.7,89
46.76,118
46.82,183
46.88,370
46.94,573
47,524
47.06,519
47.12,432
47.18,346
47.24,312
47.3,204
47.36,145
47.42,130
47.48,96
47.54,123
47.6,256
47.66,342
47.72,174
47.78,219
47.84,118
47.9,74
47.96,53
48.02,74
48.08,68
48.14,72
48.2,78
48.26,66
48.32,78
48.38,65
48.44,75
48.5,88
48.56,117
48.62,272
48.68,252
48.74,157
48.8,168
48.86,88
48.92,78
48.98,105
49.04,154
49.1,149
49.16,121
49.22,90
49.28,88
49.34,88
49.4,81
49.46,74
49.52,69
49.58,76
49.64,70
49.7,70
49.76,77
49.82,79
49.88,99
49.94,94
50,81
50.06,89
50.12,50
50.18,73
50.24,46
50.3,61
50.36,56
50.42,52
50.48,45
50.54,47
50.6,45
50.66,39
50.72,39
50.78,41
50.84,39
50.9,43
50.96,48
51.02,39
51.08,37
51.14,52
51.2,38
51.26,51
51.32,42
51.38,40
51.44,52
51.5,38
51.56,41
51.62,58
51.68,47
51.74,25
51.8,44
51.86,44
51.92,38
51.98,34
52.04,43
52.1,44
52.16,44
52.22,33
52.28,54
52.34,43
52.4,47
52.46,41
52.52,34
52.58,59
52.64,62
52.7,79
52.76,60
52.82,93
52.88,80
52.94,81
53,108
53.06,81
53.12,78
53.18,63
53.24,64
53.3,61
53.36,66
53.42,72
53.48,73
53.54,75
53.6,93
53.66,99
53.72,98
53.78,127
53.84,112
53.9,99
53.96,103
54.02,81
54.08,75
54.14,65
54.2,77
54.26,82
54.32,90
54.38,105
54.44,101
54.5,78
54.56,120
54.62,108
54.68,108
54.74,152
54.8,191
54.86,228
54.92,225
54.98,226
55.04,186
55.1,154
55.16,146
55.22,130
55.28,120
55.34,127
55.4,125
55.46,126
55.52,137
55.58,128
55.64,168
55.7,215
55.76,296
55.82,309
55.88,284
55.94,281
56,220
56.06,177
56.12,137
56.18,158
56.24,162
56.3,206
56.36,240
56.42,263
56.48,227
56.54,202
56.6,166
56.66,140
56.72,108
56.78,88
56.84,84
56.9,53
56.96,48
57.02,53
57.08,45
57.14,54
57.2,61
57.26,56
57.32,74
57.38,84
57.44,109
57.5,151
57.56,207
57.62,82
57.68,101
57.74,83
57.8,44
57.86,58
57.92,55
57.98,58
58.04,47
58.1,55
58.16,50
58.22,53
58.28,48
58.34,62
58.4,60
58.46,53
58.52,44
58.58,53
58.64,31
58.7,50
58.76,49
58.82,39
58.88,54
58.94,55
59,65
59.06,63
59.12,75
59.18,119
59.24,144
59.3,131
59.36,113
59.42,100
59.48,78
59.54,65
59.6,55
59.66,60
59.72,58
59.78,57
59.84,73
59.9,85
59.96,81
60.02,88
60.08,61
60.14,55
60.2,65
60.26,56
60.32,75
60.38,56
60.44,81
60.5,67
60.56,54
60.62,76
60.68,85
60.74,134
60.8,182
60.86,164
60.92,211
60.98,232
61.04,214
61.1,238
61.16,252
61.22,234
61.28,203
61.34,191
61.4,148
61.46,163
61.52,155
61.58,154
61.64,159
61.7,144
61.76,112
61.82,97
61.88,86
61.94,75
62,85
62.06,81
62.12,115
62.18,101
62.24,101
62.3,85
62.36,90
62.42,100
62.48,76
62.54,98
62.6,92
62.66,107
62.72,94
62.78,80
62.84,70
62.9,71
62.96,57
63.02,71
63.08,60
63.14,61
63.2,49
63.26,56
63.32,50
63.38,37
63.44,39
63.5,53
63.56,28
63.62,41
63.68,44
63.74,35
63.8,45
63.86,34
63.92,50
63.98,49
64.04,36
64.1,40
64.16,46
64.22,41
64.28,35
64.34,37
64.4,40
64.46,32
64.52,30
64.58,32
64.64,41
64.7,54
64.76,103
64.82,94
64.88,43
64.94,60
65,72
65.06,52
65.12,50
65.18,46
65.24,30
65.3,45
65.36,46
65.42,40
65.48,47
65.54,43
65.6,38
65.66,58
65.72,117
65.78,114
65.84,69
65.9,73
65.96,64
66.02,50
66.08,43
66.14,43
66.2,26
66.26,27
66.32,34
66.38,37
66.44,48
66.5,36
66.56,34
66.62,35
66.68,35
66.74,49
66.8,36
66.86,39
66.92,40
66.98,36
67.04,45
67.1,52
67.16,41
67.22,35
67.28,47
67.34,45
67.4,41
67.46,44
67.52,36
67.58,46
67.64,45
67.7,38
67.76,50
67.82,51
67.88,58
67.94,61
68,72
68.06,86
68.12,106
68.18,175
68.24,226
68.3,292
68.36,237
68.42,245
68.48,254
68.54,184
68.6,178
68.66,150
68.72,153
68.78,182
68.84,180
68.9,150
68.96,121
69.02,103
69.08,92
69.14,78
69.2,81
69.26,68
69.32,62
69.38,81
69.44,63
69.5,90
69.56,101
69.62,99
69.68,132
69.74,152
69.8,209
69.86,196
69.92,169
69.98,179
70.01,151
,