File: Fig S2/FigS2_A_XRD_mixture_x75.csv
Bragg_angle,Intensity
\circ,a.u.
5,237
5.06,243
5.12,230
5.18,218
5.24,210
5.3,282
5.36,213
5.42,276
5.48,221
5.54,218
5.6,196
5.66,225
5.72,207
5.78,199
5.84,201
5.9,183
5.96,167
6.02,167
6.08,174
6.14,154
6.2,167
6.26,153
6.32,156
6.38,149
6.44,147
6.5,135
6.56,151
6.62,118
6.68,163
6.74,168
6.8,157
6.86,138
6.92,151
6.98,135
7.04,151
7.1,130
7.16,142
7.22,144
7.28,130
7.34,133
7.4,138
7.46,143
7.52,141
7.58,168
7.64,137
7.7,148
7.76,161
7.82,149
7.88,166
7.94,150
8,151
8.06,143
8.12,140
8.18,117
8.24,147
8.3,115
8.36,111
8.42,129
8.48,130
8.54,117
8.6,125
8.66,119
8.72,136
8.78,140
8.84,137
8.9,145
8.96,154
9.02,155
9.08,156
9.14,203
9.2,175
9.26,161
9.32,164
9.38,217
9.44,203
9.5,196
9.56,202
9.62,200
9.68,202
9.74,202
9.8,209
9.86,206
9.92,207
9.98,197
10.04,205
10.1,207
10.16,182
10.22,185
10.28,172
10.34,176
10.4,176
10.46,152
10.52,140
10.58,133
10.64,126
10.7,116
10.76,101
10.82,118
10.88,108
10.94,128
11,120
11.06,106
11.12,106
11.18,123
11.24,104
11.3,106
11.36,96
11.42,108
11.48,103
11.54,97
11.6,106
11.66,113
11.72,120
11.78,122
11.84,86
11.9,113
11.96,132
12.02,137
12.08,101
12.14,113
12.2,114
12.26,105
12.32,106
12.38,114
12.44,119
12.5,118
12.56,122
12.62,111
12.68,103
12.74,113
12.8,116
12.86,107
12.92,115
12.98,101
13.04,105
13.1,108
13.16,83
13.22,106
13.28,122
13.34,97
13.4,103
13.46,115
13.52,113
13.58,117
13.64,92
13.7,111
13.76,102
13.82,108
13.88,94
13.94,119
14,104
14.06,104
14.12,107
14.18,97
14.24,111
14.3,105
14.36,112
14.42,128
14.48,110
14.54,106
14.6,92
14.66,123
14.72,114
14.78,107
14.84,102
14.9,123
14.96,112
15.02,113
15.08,122
15.14,106
15.2,116
15.26,106
15.32,98
15.38,111
15.44,123
15.5,115
15.56,117
15.62,114
15.68,99
15.74,107
15.8,105
15.86,111
15.92,110
15.98,107
16.04,92
16.1,116
16.16,104
16.22,110
16.28,103
16.34,107
16.4,103
16.46,92
16.52,94
16.58,87
16.64,107
16.7,117
16.76,97
16.82,89
16.88,91
16.94,100
17,88
17.06,101
17.12,95
17.18,95
17.24,96
17.3,101
17.36,79
17.42,80
17.48,89
17.54,94
17.6,79
17.66,112
17.72,78
17.78,89
17.84,107
17.9,87
17.96,92
18.02,76
18.08,84
18.14,80
18.2,91
18.26,88
18.32,84
18.38,82
18.44,67
18.5,69
18.56,90
18.62,78
18.68,84
18.74,79
18.8,76
18.86,85
18.92,81
18.98,105
19.04,95
19.1,85
19.16,124
19.22,111
19.28,141
19.34,194
19.4,197
19.46,321
19.52,481
19.58,855
19.64,791
19.7,493
19.76,342
19.82,286
19.88,268
19.94,279
20,333
20.06,333
20.12,259
20.18,161
20.24,117
20.3,105
20.36,89
20.42,97
20.48,92
20.54,89
20.6,95
20.66,93
20.72,78
20.78,86
20.84,75
20.9,66
20.96,73
21.02,78
21.08,98
21.14,86
21.2,84
21.26,72
21.32,67
21.38,81
21.44,80
21.5,71
21.56,97
21.62,104
21.68,106
21.74,109
21.8,115
21.86,97
21.92,79
21.98,95
22.04,98
22.1,81
22.16,90
22.22,76
22.28,73
22.34,75
22.4,75
22.46,75
22.52,88
22.58,81
22.64,71
22.7,84
22.76,77
22.82,82
22.88,77
22.94,84
23,84
23.06,96
23.12,81
23.18,97
23.24,90
23.3,111
23.36,118
23.42,117
23.48,114
23.54,147
23.6,163
23.66,163
23.72,230
23.78,330
23.84,567
23.9,952
23.96,1819
24.02,3566
24.08,4357
24.14,3000
24.2,1879
24.26,1499
24.32,1611
24.38,1724
24.44,1656
24.5,1152
24.56,570
24.62,348
24.68,239
24.74,175
24.8,150
24.86,143
24.92,126
24.98,112
25.04,90
25.1,93
25.16,108
25.22,129
25.28,110
25.34,88
25.4,98
25.46,90
25.52,96
25.58,78
25.64,93
25.7,99
25.76,80
25.82,77
25.88,77
25.94,87
26,72
26.06,77
26.12,84
26.18,74
26.24,92
26.3,78
26.36,80
26.42,76
26.48,79
26.54,72
26.6,79
26.66,67
26.72,82
26.78,82
26.84,69
26.9,75
26.96,70
27.02,79
27.08,78
27.14,63
27.2,76
27.26,87
27.32,68
27.38,74
27.44,65
27.5,74
27.56,77
27.62,80
27.68,94
27.74,141
27.8,215
27.86,427
27.92,357
27.98,183
28.04,114
28.1,73
28.16,54
28.22,67
28.28,73
28.34,76
28.4,63
28.46,62
28.52,76
28.58,62
28.64,74
28.7,57
28.76,75
28.82,60
28.88,75
28.94,64
29,65
29.06,63
29.12,67
29.18,67
29.24,83
29.3,81
29.36,86
29.42,96
29.48,139
29.54,294
29.6,295
29.66,255
29.72,162
29.78,123
29.84,113
29.9,88
29.96,82
30.02,77
30.08,62
30.14,76
30.2,64
30.26,77
30.32,72
30.38,72
30.44,71
30.5,64
30.56,75
30.62,75
30.68,66
30.74,62
30.8,71
30.86,77
30.92,64
30.98,74
31.04,57
31.1,70
31.16,66
31.22,76
31.28,73
31.34,61
31.4,67
31.46,68
31.52,63
31.58,66
31.64,62
31.7,66
31.76,66
31.82,64
31.88,69
31.94,68
32,58
32.06,75
32.12,65
32.18,68
32.24,71
32.3,68
32.36,62
32.42,70
32.48,72
32.54,77
32.6,100
32.66,100
32.72,109
32.78,93
32.84,81
32.9,76
32.96,69
33.02,83
33.08,81
33.14,71
33.2,83
33.26,95
33.32,101
33.38,142
33.44,125
33.5,126
33.56,147
33.62,176
33.68,219
33.74,276
33.8,428
33.86,595
33.92,648
33.98,603
34.04,620
34.1,609
34.16,692
34.22,989
34.28,981
34.34,887
34.4,757
34.46,779
34.52,896
34.58,1052
34.64,1263
34.7,1621
34.76,1527
34.82,1115
34.88,575
34.94,303
35,209
35.06,159
35.12,116
35.18,92
35.24,110
35.3,99
35.36,72
35.42,78
35.48,91
35.54,68
35.6,65
35.66,84
35.72,69
35.78,76
35.84,82
35.9,66
35.96,64
36.02,64
36.08,80
36.14,77
36.2,85
36.26,85
36.32,64
36.38,65
36.44,63
36.5,48
36.56,84
36.62,67
36.68,60
36.74,60
36.8,63
36.86,61
36.92,63
36.98,65
37.04,61
37.1,64
37.16,60
37.22,61
37.28,54
37.34,54
37.4,52
37.46,51
37.52,60
37.58,69
37.64,69
37.7,65
37.76,63
37.82,71
37.88,70
37.94,86
38,73
38.06,79
38.12,74
38.18,91
38.24,89
38.3,72
38.36,78
38.42,52
38.48,54
38.54,74
38.6,50
38.66,66
38.72,59
38.78,48
38.84,54
38.9,61
38.96,70
39.02,73
39.08,49
39.14,64
39.2,72
39.26,61
39.32,100
39.38,119
39.44,159
39.5,214
39.56,360
39.62,510
39.68,451
39.74,352
39.8,247
39.86,155
39.92,117
39.98,127
40.04,106
40.1,99
40.16,93
40.22,102
40.28,92
40.34,117
40.4,105
40.46,144
40.52,147
40.58,183
40.64,191
40.7,140
40.76,131
40.82,108
40.88,77
40.94,73
41,80
41.06,66
41.12,69
41.18,60
41.24,73
41.3,59
41.36,65
41.42,82
41.48,75
41.54,64
41.6,80
41.66,104
41.72,98
41.78,113
41.84,149
41.9,207
41.96,321
42.02,514
42.08,1064
42.14,1575
42.2,1436
42.26,1112
42.32,737
42.38,440
42.44,315
42.5,266
42.56,261
42.62,200
42.68,224
42.74,234
42.8,255
42.86,255
42.92,362
42.98,389
43.04,531
43.1,559
43.16,486
43.22,351
43.28,279
43.34,183
43.4,139
43.46,110
43.52,102
43.58,90
43.64,86
43.7,71
43.76,66
43.82,83
43.88,96
43.94,89
44,65
44.06,95
44.12,124
44.18,152
44.24,192
44.3,274
44.36,336
44.42,349
44.48,311
44.54,320
44.6,274
44.66,267
44.72,273
44.78,290
44.84,352
44.9,468
44.96,604
45.02,760
45.08,725
45.14,511
45.2,320
45.26,181
45.32,120
45.38,102
45.44,84
45.5,76
45.56,71
45.62,69
45.68,79
45.74,65
45.8,61
45.86,53
45.92,69
45.98,56
46.04,58
46.1,50
46.16,60
46.22,59
46.28,69
46.34,59
46.4,64
46.46,80
46.52,57
46.58,92
46.64,89
46.7,111
46.76,120
46.82,164
46.88,359
46.94,538
47,475
47.06,502
47.12,383
47.18,302
47.24,215
47.3,137
47.36,93
47.42,78
47.48,65
47.54,80
47.6,99
47.66,96
47.72,75
47.78,85
47.84,65
47.9,42
47.96,58
48.02,61
48.08,67
48.14,72
48.2,66
48.26,71
48.32,83
48.38,73
48.44,37
48.5,64
48.56,67
48.62,88
48.68,96
48.74,70
48.8,68
48.86,77
48.92,66
48.98,124
49.04,158
49.1,179
49.16,149
49.22,124
49.28,114
49.34,79
49.4,75
49.46,64
49.52,69
49.58,80
49.64,56
49.7,71
49.76,84
49.82,81
49.88,90
49.94,109
50,95
50.06,70
50.12,63
50.18,45
50.24,56
50.3,58
50.36,54
50.42,64
50.48,59
50.54,44
50.6,61
50.66,55
50.72,44
50.78,40
50.84,47
50.9,58
50.96,55
51.02,37
51.08,56
51.14,61
51.2,52
51.26,47
51.32,43
51.38,39
51.44,51
51.5,50
51.56,46
51.62,45
51.68,43
51.74,39
51.8,38
51.86,48
51.92,51
51.98,50
52.04,47
52.1,31
52.16,54
52.22,56
52.28,45
52.34,60
52.4,47
52.46,38
52.52,61
52.58,45
52.64,73
52.7,78
52.76,90
52.82,103
52.88,109
52.94,101
53,89
53.06,91
53.12,96
53.18,69
53.24,101
53.3,90
53.36,84
53.42,101
53.48,90
53.54,100
53.6,114
53.66,109
53.72,120
53.78,144
53.84,119
53.9,111
53.96,130
54.02,93
54.08,86
54.14,86
54.2,87
54.26,97
54.32,103
54.38,109
54.44,128
54.5,113
54.56,110
54.62,111
54.68,132
54.74,173
54.8,246
54.86,283
54.92,252
54.98,280
55.04,226
55.1,224
55.16,169
55.22,170
55.28,168
55.34,160
55.4,166
55.46,158
55.52,166
55.58,191
55.64,197
55.7,263
55.76,314
55.82,378
55.88,348
55.94,270
56,271
56.06,232
56.12,202
56.18,213
56.24,214
56.3,241
56.36,314
56.42,306
56.48,264
56.54,212
56.6,173
56.66,139
56.72,89
56.78,77
56.84,73
56.9,65
56.96,48
57.02,44
57.08,47
57.14,52
57.2,73
57.26,61
57.32,68
57.38,79
57.44,84
57.5,95
57.56,80
57.62,68
57.68,62
57.74,46
57.8,47
57.86,62
57.92,52
57.98,53
58.04,57
58.1,57
58.16,58
58.22,47
58.28,55
58.34,51
58.4,57
58.46,69
58.52,52
58.58,60
58.64,40
58.7,47
58.76,50
58.82,49
58.88,55
58.94,54
59,52
59.06,66
59.12,87
59.18,145
59.24,148
59.3,122
59.36,118
59.42,106
59.48,87
59.54,84
59.6,71
59.66,54
59.72,58
59.78,53
59.84,78
59.9,64
59.96,88
60.02,79
60.08,75
60.14,76
60.2,62
60.26,52
60.32,79
60.38,58
60.44,57
60.5,77
60.56,88
60.62,94
60.68,99
60.74,111
60.8,128
60.86,153
60.92,202
60.98,252
61.04,259
61.1,251
61.16,267
61.22,228
61.28,211
61.34,178
61.4,148
61.46,143
61.52,147
61.58,128
61.64,131
61.7,119
61.76,111
61.82,96
61.88,88
61.94,88
62,89
62.06,100
62.12,119
62.18,102
62.24,107
62.3,97
62.36,100
62.42,81
62.48,89
62.54,88
62.6,111
62.66,111
62.72,116
62.78,89
62.84,95
62.9,85
62.96,60
63.02,65
63.08,53
63.14,50
63.2,58
63.26,52
63.32,45
63.38,44
63.44,45
63.5,47
63.56,42
63.62,39
63.68,42
63.74,41
63.8,49
63.86,38
63.92,48
63.98,44
64.04,50
64.1,48
64.16,42
64.22,40
64.28,43
64.34,43
64.4,48
64.46,39
64.52,48
64.58,45
64.64,47
64.7,40
64.76,46
64.82,41
64.88,44
64.94,45
65,58
65.06,43
65.12,43
65.18,36
65.24,39
65.3,46
65.36,52
65.42,42
65.48,43
65.54,28
65.6,27
65.66,33
65.72,51
65.78,50
65.84,35
65.9,37
65.96,53
66.02,54
66.08,48
66.14,36
66.2,46
66.26,46
66.32,39
66.38,33
66.44,44
66.5,44
66.56,45
66.62,49
66.68,47
66.74,56
66.8,33
66.86,38
66.92,38
66.98,46
67.04,40
67.1,50
67.16,38
67.22,50
67.28,43
67.34,51
67.4,56
67.46,45
67.52,50
67.58,41
67.64,46
67.7,45
67.76,61
67.82,48
67.88,55
67.94,59
68,59
68.06,76
68.12,114
68.18,176
68.24,229
68.3,287
68.36,273
68.42,242
68.48,242
68.54,221
68.6,180
68.66,175
68.72,217
68.78,218
68.84,171
68.9,150
68.96,141
69.02,98
69.08,104
69.14,74
69.2,70
69.26,69
69.32,93
69.38,80
69.44,71
69.5,81
69.56,87
69.62,120
69.68,149
69.74,203
69.8,206
69.86,207
69.92,199
69.98,196
70.01,161
,