File: Fig S2/FigS2_A_XRD_mixture_x625.csv
Bragg_angle,Intensity
\circ,a.u.
5,281
5.06,267
5.12,274
5.18,270
5.24,303
5.3,277
5.36,271
5.42,245
5.48,276
5.54,289
5.6,255
5.66,240
5.72,251
5.78,215
5.84,207
5.9,210
5.96,232
6.02,186
6.08,174
6.14,204
6.2,194
6.26,205
6.32,197
6.38,187
6.44,184
6.5,189
6.56,210
6.62,201
6.68,184
6.74,159
6.8,181
6.86,179
6.92,172
6.98,182
7.04,179
7.1,167
7.16,159
7.22,176
7.28,195
7.34,190
7.4,177
7.46,237
7.52,190
7.58,227
7.64,194
7.7,194
7.76,199
7.82,206
7.88,204
7.94,178
8,154
8.06,183
8.12,174
8.18,170
8.24,166
8.3,178
8.36,158
8.42,155
8.48,138
8.54,161
8.6,170
8.66,162
8.72,185
8.78,196
8.84,200
8.9,208
8.96,214
9.02,214
9.08,242
9.14,249
9.2,249
9.26,258
9.32,316
9.38,296
9.44,303
9.5,326
9.56,317
9.62,300
9.68,293
9.74,339
9.8,316
9.86,326
9.92,343
9.98,289
10.04,321
10.1,258
10.16,314
10.22,282
10.28,265
10.34,262
10.4,265
10.46,243
10.52,203
10.58,173
10.64,151
10.7,151
10.76,145
10.82,134
10.88,137
10.94,147
11,141
11.06,136
11.12,124
11.18,134
11.24,164
11.3,142
11.36,133
11.42,136
11.48,142
11.54,116
11.6,131
11.66,139
11.72,159
11.78,143
11.84,140
11.9,151
11.96,157
12.02,147
12.08,139
12.14,145
12.2,152
12.26,147
12.32,130
12.38,140
12.44,148
12.5,152
12.56,158
12.62,147
12.68,141
12.74,149
12.8,120
12.86,126
12.92,149
12.98,140
13.04,131
13.1,140
13.16,129
13.22,134
13.28,117
13.34,134
13.4,119
13.46,132
13.52,118
13.58,117
13.64,127
13.7,131
13.76,133
13.82,125
13.88,140
13.94,130
14,149
14.06,133
14.12,136
14.18,135
14.24,137
14.3,132
14.36,111
14.42,136
14.48,112
14.54,115
14.6,132
14.66,119
14.72,132
14.78,135
14.84,155
14.9,129
14.96,149
15.02,135
15.08,129
15.14,127
15.2,116
15.26,129
15.32,127
15.38,140
15.44,135
15.5,139
15.56,113
15.62,114
15.68,132
15.74,117
15.8,131
15.86,124
15.92,121
15.98,102
16.04,105
16.1,109
16.16,107
16.22,87
16.28,103
16.34,110
16.4,105
16.46,111
16.52,124
16.58,103
16.64,108
16.7,95
16.76,112
16.82,98
16.88,112
16.94,92
17,113
17.06,102
17.12,100
17.18,102
17.24,104
17.3,99
17.36,98
17.42,109
17.48,108
17.54,94
17.6,100
17.66,106
17.72,96
17.78,93
17.84,100
17.9,96
17.96,91
18.02,109
18.08,86
18.14,89
18.2,92
18.26,85
18.32,100
18.38,75
18.44,95
18.5,103
18.56,93
18.62,84
18.68,98
18.74,98
18.8,114
18.86,78
18.92,101
18.98,84
19.04,111
19.1,91
19.16,129
19.22,106
19.28,162
19.34,210
19.4,332
19.46,505
19.52,688
19.58,569
19.64,377
19.7,297
19.76,275
19.82,282
19.88,263
19.94,291
20,298
20.06,200
20.12,119
20.18,97
20.24,95
20.3,119
20.36,107
20.42,84
20.48,96
20.54,95
20.6,92
20.66,88
20.72,82
20.78,82
20.84,98
20.9,90
20.96,99
21.02,73
21.08,76
21.14,88
21.2,84
21.26,89
21.32,82
21.38,101
21.44,85
21.5,90
21.56,114
21.62,120
21.68,120
21.74,97
21.8,90
21.86,100
21.92,113
21.98,106
22.04,92
22.1,92
22.16,80
22.22,90
22.28,82
22.34,93
22.4,80
22.46,87
22.52,81
22.58,76
22.64,89
22.7,81
22.76,82
22.82,77
22.88,80
22.94,89
23,89
23.06,115
23.12,121
23.18,137
23.24,114
23.3,100
23.36,103
23.42,124
23.48,137
23.54,181
23.6,184
23.66,258
23.72,403
23.78,715
23.84,1239
23.9,2666
23.96,4579
24.02,4212
24.08,2736
24.14,1824
24.2,1727
24.26,1691
24.32,1831
24.38,1531
24.44,915
24.5,468
24.56,287
24.62,181
24.68,170
24.74,130
24.8,127
24.86,140
24.92,142
24.98,104
25.04,120
25.1,112
25.16,106
25.22,101
25.28,112
25.34,94
25.4,94
25.46,101
25.52,102
25.58,95
25.64,76
25.7,96
25.76,81
25.82,94
25.88,85
25.94,85
26,90
26.06,86
26.12,74
26.18,73
26.24,77
26.3,88
26.36,79
26.42,75
26.48,88
26.54,69
26.6,102
26.66,78
26.72,73
26.78,78
26.84,83
26.9,85
26.96,92
27.02,81
27.08,78
27.14,83
27.2,65
27.26,77
27.32,81
27.38,79
27.44,75
27.5,101
27.56,85
27.62,113
27.68,236
27.74,384
27.8,588
27.86,401
27.92,166
27.98,103
28.04,91
28.1,92
28.16,78
28.22,57
28.28,60
28.34,70
28.4,78
28.46,67
28.52,57
28.58,75
28.64,75
28.7,63
28.76,76
28.82,74
28.88,62
28.94,65
29,56
29.06,80
29.12,61
29.18,83
29.24,102
29.3,159
29.36,261
29.42,555
29.48,789
29.54,530
29.6,283
29.66,189
29.72,136
29.78,104
29.84,85
29.9,77
29.96,83
30.02,84
30.08,79
30.14,77
30.2,79
30.26,65
30.32,65
30.38,67
30.44,75
30.5,81
30.56,65
30.62,58
30.68,67
30.74,59
30.8,71
30.86,78
30.92,61
30.98,79
31.04,76
31.1,66
31.16,80
31.22,74
31.28,101
31.34,66
31.4,58
31.46,84
31.52,65
31.58,85
31.64,71
31.7,60
31.76,49
31.82,73
31.88,55
31.94,72
32,74
32.06,79
32.12,72
32.18,64
32.24,62
32.3,79
32.36,79
32.42,89
32.48,101
32.54,105
32.6,106
32.66,114
32.72,107
32.78,85
32.84,69
32.9,100
32.96,89
33.02,88
33.08,83
33.14,106
33.2,102
33.26,111
33.32,131
33.38,125
33.44,121
33.5,131
33.56,172
33.62,212
33.68,289
33.74,440
33.8,519
33.86,593
33.92,522
33.98,530
34.04,593
34.1,811
34.16,1123
34.22,1022
34.28,883
34.34,801
34.4,875
34.46,855
34.52,958
34.58,1104
34.64,1350
34.7,1167
34.76,781
34.82,373
34.88,246
34.94,139
35,124
35.06,109
35.12,90
35.18,85
35.24,70
35.3,83
35.36,88
35.42,97
35.48,86
35.54,67
35.6,61
35.66,75
35.72,73
35.78,70
35.84,78
35.9,98
35.96,91
36.02,151
36.08,156
36.14,106
36.2,71
36.26,71
36.32,79
36.38,73
36.44,66
36.5,62
36.56,57
36.62,64
36.68,69
36.74,59
36.8,73
36.86,54
36.92,66
36.98,66
37.04,67
37.1,51
37.16,61
37.22,76
37.28,58
37.34,57
37.4,64
37.46,76
37.52,63
37.58,68
37.64,70
37.7,73
37.76,68
37.82,65
37.88,75
37.94,69
38,80
38.06,79
38.12,50
38.18,56
38.24,75
38.3,77
38.36,48
38.42,67
38.48,56
38.54,61
38.6,72
38.66,70
38.72,59
38.78,49
38.84,69
38.9,65
38.96,70
39.02,67
39.08,76
39.14,65
39.2,64
39.26,69
39.32,102
39.38,182
39.44,318
39.5,457
39.56,489
39.62,405
39.68,277
39.74,188
39.8,135
39.86,130
39.92,98
39.98,106
40.04,94
40.1,111
40.16,86
40.22,96
40.28,97
40.34,129
40.4,127
40.46,134
40.52,167
40.58,173
40.64,126
40.7,99
40.76,110
40.82,64
40.88,76
40.94,69
41,62
41.06,58
41.12,65
41.18,63
41.24,66
41.3,63
41.36,65
41.42,70
41.48,80
41.54,105
41.6,94
41.66,106
41.72,125
41.78,135
41.84,220
41.9,373
41.96,583
42.02,1095
42.08,1420
42.14,1179
42.2,914
42.26,532
42.32,362
42.38,267
42.44,270
42.5,201
42.56,195
42.62,208
42.68,222
42.74,273
42.8,281
42.86,350
42.92,415
42.98,527
43.04,493
43.1,415
43.16,343
43.22,266
43.28,172
43.34,156
43.4,120
43.46,102
43.52,99
43.58,78
43.64,85
43.7,75
43.76,75
43.82,73
43.88,97
43.94,85
44,113
44.06,141
44.12,155
44.18,249
44.24,318
44.3,389
44.36,385
44.42,378
44.48,325
44.54,281
44.6,288
44.66,300
44.72,328
44.78,418
44.84,574
44.9,778
44.96,873
45.02,664
45.08,477
45.14,252
45.2,165
45.26,131
45.32,88
45.38,99
45.44,82
45.5,75
45.56,50
45.62,64
45.68,62
45.74,72
45.8,71
45.86,82
45.92,62
45.98,75
46.04,61
46.1,69
46.16,67
46.22,67
46.28,73
46.34,69
46.4,71
46.46,78
46.52,71
46.58,89
46.64,106
46.7,140
46.76,271
46.82,542
46.88,664
46.94,590
47,620
47.06,499
47.12,364
47.18,262
47.24,188
47.3,135
47.36,102
47.42,105
47.48,108
47.54,241
47.6,209
47.66,148
47.72,108
47.78,65
47.84,60
47.9,70
47.96,52
48.02,73
48.08,79
48.14,71
48.2,67
48.26,69
48.32,71
48.38,83
48.44,73
48.5,126
48.56,229
48.62,181
48.68,156
48.74,134
48.8,66
48.86,101
48.92,122
48.98,172
49.04,171
49.1,167
49.16,133
49.22,98
49.28,94
49.34,90
49.4,80
49.46,67
49.52,75
49.58,94
49.64,89
49.7,116
49.76,102
49.82,125
49.88,106
49.94,80
50,76
50.06,64
50.12,72
50.18,57
50.24,54
50.3,56
50.36,57
50.42,55
50.48,58
50.54,58
50.6,45
50.66,62
50.72,45
50.78,45
50.84,35
50.9,56
50.96,48
51.02,46
51.08,50
51.14,46
51.2,56
51.26,48
51.32,50
51.38,43
51.44,57
51.5,57
51.56,50
51.62,37
51.68,40
51.74,48
51.8,42
51.86,32
51.92,57
51.98,55
52.04,45
52.1,51
52.16,55
52.22,50
52.28,63
52.34,46
52.4,61
52.46,65
52.52,57
52.58,78
52.64,72
52.7,114
52.76,103
52.82,90
52.88,98
52.94,80
53,81
53.06,72
53.12,90
53.18,64
53.24,104
53.3,85
53.36,91
53.42,69
53.48,64
53.54,86
53.6,111
53.66,132
53.72,133
53.78,122
53.84,105
53.9,83
53.96,85
54.02,94
54.08,87
54.14,85
54.2,84
54.26,99
54.32,131
54.38,109
54.44,99
54.5,108
54.56,127
54.62,155
54.68,163
54.74,220
54.8,249
54.86,235
54.92,269
54.98,201
55.04,182
55.1,158
55.16,139
55.22,145
55.28,128
55.34,144
55.4,147
55.46,168
55.52,183
55.58,199
55.64,240
55.7,286
55.76,313
55.82,314
55.88,277
55.94,238
56,178
56.06,209
56.12,168
56.18,210
56.24,241
56.3,272
56.36,269
56.42,253
56.48,190
56.54,146
56.6,141
56.66,116
56.72,95
56.78,95
56.84,59
56.9,53
56.96,64
57.02,61
57.08,63
57.14,49
57.2,55
57.26,95
57.32,108
57.38,99
57.44,148
57.5,134
57.56,70
57.62,122
57.68,79
57.74,68
57.8,49
57.86,51
57.92,43
57.98,40
58.04,56
58.1,62
58.16,56
58.22,63
58.28,59
58.34,69
58.4,64
58.46,78
58.52,60
58.58,69
58.64,68
58.7,50
58.76,45
58.82,44
58.88,62
58.94,55
59,78
59.06,108
59.12,137
59.18,163
59.24,146
59.3,152
59.36,103
59.42,88
59.48,71
59.54,67
59.6,69
59.66,62
59.72,63
59.78,86
59.84,90
59.9,98
59.96,106
60.02,89
60.08,72
60.14,62
60.2,73
60.26,91
60.32,60
60.38,61
60.44,60
60.5,82
60.56,92
60.62,106
60.68,139
60.74,169
60.8,198
60.86,209
60.92,248
60.98,221
61.04,228
61.1,264
61.16,245
61.22,205
61.28,187
61.34,191
61.4,169
61.46,133
61.52,156
61.58,122
61.64,113
61.7,92
61.76,99
61.82,82
61.88,94
61.94,92
62,102
62.06,106
62.12,98
62.18,111
62.24,111
62.3,87
62.36,98
62.42,82
62.48,97
62.54,111
62.6,102
62.66,71
62.72,89
62.78,101
62.84,79
62.9,64
62.96,48
63.02,66
63.08,68
63.14,54
63.2,58
63.26,56
63.32,36
63.38,40
63.44,44
63.5,37
63.56,43
63.62,52
63.68,52
63.74,45
63.8,49
63.86,35
63.92,47
63.98,38
64.04,42
64.1,43
64.16,47
64.22,41
64.28,44
64.34,44
64.4,40
64.46,40
64.52,36
64.58,42
64.64,49
64.7,76
64.76,69
64.82,53
64.88,54
64.94,58
65,53
65.06,49
65.12,57
65.18,43
65.24,46
65.3,42
65.36,34
65.42,45
65.48,49
65.54,48
65.6,59
65.66,79
65.72,48
65.78,50
65.84,64
65.9,47
65.96,46
66.02,52
66.08,45
66.14,38
66.2,34
66.26,37
66.32,39
66.38,35
66.44,37
66.5,46
66.56,40
66.62,45
66.68,48
66.74,40
66.8,47
66.86,46
66.92,58
66.98,49
67.04,49
67.1,47
67.16,42
67.22,48
67.28,41
67.34,43
67.4,51
67.46,40
67.52,45
67.58,53
67.64,43
67.7,71
67.76,61
67.82,59
67.88,69
67.94,81
68,89
68.06,122
68.12,202
68.18,257
68.24,286
68.3,250
68.36,242
68.42,230
68.48,228
68.54,173
68.6,187
68.66,219
68.72,223
68.78,171
68.84,139
68.9,156
68.96,104
69.02,102
69.08,72
69.14,72
69.2,81
69.26,75
69.32,72
69.38,83
69.44,109
69.5,102
69.56,114
69.62,200
69.68,180
69.74,203
69.8,221
69.86,186
69.92,159
69.98,168
70.01,156
,