File: Fig S2/FigS2_B_XRD_calcite_100mM_BaCl2.csv
Bragg_angle,Intensity
\circ,a.u.
9.96,427
10.01,402
10.06,469
10.11,410
10.16,414
10.21,399
10.26,427
10.31,408
10.36,409
10.41,382
10.46,424
10.51,399
10.56,404
10.61,396
10.66,419
10.71,368
10.76,379
10.81,420
10.86,396
10.91,368
10.96,388
11.01,393
11.06,368
11.11,387
11.16,351
11.21,354
11.26,340
11.31,343
11.36,359
11.41,365
11.46,374
11.51,348
11.56,366
11.61,347
11.66,381
11.71,378
11.76,367
11.81,349
11.86,399
11.91,379
11.96,361
12.01,384
12.06,334
12.11,395
12.16,374
12.21,383
12.26,384
12.31,363
12.36,344
12.41,345
12.46,362
12.51,397
12.56,365
12.61,390
12.66,358
12.71,352
12.76,356
12.81,352
12.86,368
12.91,375
12.96,400
13.01,354
13.06,344
13.11,373
13.16,374
13.21,367
13.26,343
13.31,328
13.36,338
13.41,375
13.46,352
13.51,358
13.56,340
13.61,376
13.66,361
13.71,339
13.76,331
13.81,361
13.86,345
13.91,297
13.96,393
14.01,353
14.06,327
14.11,286
14.16,358
14.21,345
14.26,328
14.31,318
14.36,313
14.41,334
14.46,320
14.51,278
14.56,328
14.61,337
14.66,320
14.71,319
14.76,331
14.81,307
14.86,320
14.91,319
14.96,295
15.01,310
15.06,311
15.11,317
15.16,343
15.21,340
15.26,330
15.31,302
15.36,305
15.41,334
15.46,298
15.51,336
15.56,292
15.61,312
15.66,327
15.71,295
15.76,339
15.81,313
15.86,299
15.91,281
15.96,301
16.01,331
16.06,308
16.11,305
16.16,295
16.21,275
16.26,282
16.31,302
16.36,315
16.41,278
16.46,286
16.51,299
16.56,321
16.61,303
16.66,279
16.71,239
16.76,292
16.81,272
16.86,282
16.91,284
16.96,282
17.01,293
17.06,280
17.11,261
17.16,267
17.21,246
17.26,247
17.31,268
17.36,263
17.41,265
17.46,294
17.51,306
17.56,271
17.61,295
17.66,284
17.71,278
17.76,280
17.81,229
17.86,251
17.91,285
17.96,248
18.01,263
18.06,244
18.11,232
18.16,273
18.21,267
18.26,276
18.31,248
18.36,264
18.41,253
18.46,247
18.51,244
18.56,243
18.61,260
18.66,230
18.71,239
18.76,255
18.81,242
18.86,239
18.91,233
18.96,221
19.01,267
19.06,241
19.11,233
19.16,263
19.21,252
19.26,285
19.31,291
19.36,314
19.41,410
19.46,455
19.51,595
19.56,648
19.61,601
19.66,395
19.71,303
19.76,291
19.81,275
19.86,286
19.91,309
19.96,338
20.01,363
20.06,384
20.11,395
20.16,355
20.21,258
20.26,230
20.31,230
20.36,194
20.41,231
20.46,254
20.51,241
20.56,222
20.61,219
20.66,200
20.71,246
20.76,215
20.81,216
20.86,238
20.91,202
20.96,218
21.01,217
21.06,229
21.11,216
21.16,256
21.21,215
21.26,220
21.31,199
21.36,230
21.41,237
21.46,259
21.51,254
21.56,252
21.61,272
21.66,271
21.71,274
21.76,272
21.81,216
21.86,234
21.91,236
21.96,243
22.01,227
22.06,252
22.11,265
22.16,223
22.21,198
22.26,252
22.31,223
22.36,216
22.41,225
22.46,219
22.51,218
22.56,220
22.61,208
22.66,205
22.71,209
22.76,240
22.81,242
22.86,271
22.91,323
22.96,408
23.01,595
23.06,808
23.11,716
23.16,425
23.21,270
23.26,254
23.31,254
23.36,262
23.41,255
23.46,285
23.51,315
23.56,331
23.61,376
23.66,469
23.71,544
23.76,777
23.81,1130
23.86,1701
23.91,2833
23.96,4191
24.01,4986
24.06,4717
24.11,3351
24.16,2014
24.21,1379
24.26,1353
24.31,1641
24.36,2116
24.41,2529
24.46,2643
24.51,1986
24.56,1099
24.61,597
24.66,375
24.71,346
24.76,331
24.81,257
24.86,227
24.91,237
24.96,239
25.01,225
25.06,211
25.11,221
25.16,216
25.21,228
25.26,209
25.31,220
25.36,190
25.41,213
25.46,214
25.51,211
25.56,198
25.61,210
25.66,210
25.71,218
25.76,194
25.81,204
25.86,184
25.91,197
25.96,207
26.01,190
26.06,201
26.11,199
26.16,189
26.21,179
26.26,196
26.31,180
26.36,201
26.41,226
26.46,249
26.51,325
26.56,289
26.61,206
26.66,216
26.71,186
26.76,177
26.81,208
26.86,228
26.91,214
26.96,200
27.01,190
27.06,160
27.11,180
27.16,189
27.21,170
27.26,213
27.31,172
27.36,196
27.41,191
27.46,217
27.51,272
27.56,289
27.61,296
27.66,426
27.71,515
27.76,587
27.81,624
27.86,610
27.91,557
27.96,487
28.01,314
28.06,266
28.11,243
28.16,231
28.21,197
28.26,199
28.31,187
28.36,220
28.41,201
28.46,219
28.51,202
28.56,210
28.61,227
28.66,214
28.71,202
28.76,187
28.81,201
28.86,189
28.91,223
28.96,207
29.01,257
29.06,247
29.11,308
29.16,393
29.21,625
29.26,1109
29.31,2054
29.36,4757
29.41,7814
29.46,6379
29.51,3380
29.56,1112
29.61,536
29.66,479
29.71,384
29.76,353
29.81,281
29.86,287
29.91,257
29.96,232
30.01,195
30.06,198
30.11,193
30.16,179
30.21,185
30.26,176
30.31,186
30.36,178
30.41,174
30.46,217
30.51,191
30.56,197
30.61,193
30.66,178
30.71,187
30.76,184
30.81,196
30.86,194
30.91,156
30.96,194
31.01,179
31.06,167
31.11,186
31.16,168
31.21,168
31.26,186
31.31,182
31.36,201
31.41,278
31.46,363
31.51,310
31.56,225
31.61,189
31.66,149
31.71,151
31.76,167
31.81,152
31.86,163
31.91,186
31.96,166
32.01,159
32.06,184
32.11,169
32.16,169
32.21,172
32.26,206
32.31,180
32.36,187
32.41,222
32.46,217
32.51,223
32.56,224
32.61,235
32.66,233
32.71,209
32.76,210
32.81,213
32.86,194
32.91,178
32.96,177
33.01,191
33.06,190
33.11,165
33.16,163
33.21,180
33.26,161
33.31,167
33.36,224
33.41,247
33.46,234
33.51,200
33.56,237
33.61,221
33.66,258
33.71,327
33.76,394
33.81,531
33.86,731
33.91,845
33.96,793
34.01,774
34.06,731
34.11,768
34.16,912
34.21,1007
34.26,1073
34.31,1031
34.36,929
34.41,873
34.46,798
34.51,847
34.56,815
34.61,850
34.66,891
34.71,894
34.76,1016
34.81,1171
34.86,1068
34.91,995
34.96,759
35.01,459
35.06,296
35.11,237
35.16,191
35.21,173
35.26,186
35.31,173
35.36,171
35.41,146
35.46,175
35.51,182
35.56,148
35.61,158
35.66,174
35.71,169
35.76,179
35.81,178
35.86,258
35.91,443
35.96,922
36.01,894
36.06,632
36.11,430
36.16,241
36.21,163
36.26,155
36.31,178
36.36,134
36.41,131
36.46,130
36.51,122
36.56,131
36.61,148
36.66,161
36.71,139
36.76,145
36.81,126
36.86,130
36.91,151
36.96,135
37.01,143
37.06,151
37.11,132
37.16,121
37.21,141
37.26,143
37.31,125
37.36,130
37.41,137
37.46,150
37.51,153
37.56,119
37.61,139
37.66,146
37.71,160
37.76,175
37.81,161
37.86,155
37.91,139
37.96,164
38.01,171
38.06,158
38.11,167
38.16,144
38.21,162
38.26,178
38.31,151
38.36,141
38.41,154
38.46,171
38.51,123
38.56,152
38.61,140
38.66,132
38.71,148
38.76,158
38.81,171
38.86,153
38.91,144
38.96,147
39.01,164
39.06,165
39.11,177
39.16,173
39.21,174
39.26,237
39.31,349
39.36,739
39.41,1334
39.46,1186
39.51,838
39.56,647
39.61,384
39.66,365
39.71,399
39.76,419
39.81,351
39.86,283
39.91,240
39.96,195
40.01,178
40.06,159
40.11,164
40.16,140
40.21,155
40.26,141
40.31,163
40.36,157
40.41,162
40.46,168
40.51,166
40.56,171
40.61,184
40.66,174
40.71,184
40.76,227
40.81,236
40.86,229
40.91,193
40.96,180
41.01,164
41.06,143
41.11,174
41.16,165
41.21,139
41.26,127
41.31,152
41.36,127
41.41,144
41.46,137
41.51,161
41.56,150
41.61,145
41.66,162
41.71,176
41.76,186
41.81,172
41.86,230
41.91,255
41.96,325
42.01,395
42.06,504
42.11,752
42.16,969
42.21,1202
42.26,1201
42.31,1106
42.36,957
42.41,649
42.46,498
42.51,362
42.56,270
42.61,250
42.66,249
42.71,220
42.76,223
42.81,232
42.86,239
42.91,253
42.96,303
43.01,380
43.06,511
43.11,847
43.16,1466
43.21,1295
43.26,1120
43.31,993
43.36,655
43.41,429
43.46,372
43.51,286
43.56,252
43.61,197
43.66,183
43.71,153
43.76,161
43.81,161
43.86,154
43.91,153
43.96,164
44.01,185
44.06,232
44.11,212
44.16,254
44.21,279
44.26,357
44.31,431
44.36,479
44.41,532
44.46,511
44.51,519
44.56,463
44.61,364
44.66,315
44.71,266
44.76,268
44.81,313
44.86,373
44.91,394
44.96,478
45.01,649
45.06,769
45.11,983
45.16,925
45.21,833
45.26,710
45.31,572
45.36,398
45.41,281
45.46,216
45.51,200
45.56,150
45.61,140
45.66,175
45.71,154
45.76,144
45.81,153
45.86,130
45.91,136
45.96,135
46.01,146
46.06,133
46.11,115
46.16,137
46.21,154
46.26,151
46.31,159
46.36,147
46.41,184
46.46,158
46.51,169
46.56,229
46.61,227
46.66,274
46.71,332
46.76,411
46.81,461
46.86,544
46.91,639
46.96,720
47.01,783
47.06,949
47.11,998
47.16,997
47.21,830
47.26,775
47.31,580
47.36,558
47.41,608
47.46,1149
47.51,1610
47.56,1309
47.61,915
47.66,835
47.71,419
47.76,199
47.81,153
47.86,153
47.91,149
47.96,152
48.01,154
48.06,154
48.11,165
48.16,155
48.21,142
48.26,150
48.31,178
48.36,233
48.41,410
48.46,849
48.51,1407
48.56,1098
48.61,736
48.66,746
48.71,397
48.76,188
48.81,157
48.86,164
48.91,181
48.96,170
49.01,200
49.06,201
49.11,216
49.16,224
49.21,227
49.26,199
49.31,202
49.36,176
49.41,157
49.46,150
49.51,153
49.56,158
49.61,112
49.66,130
49.71,112
49.76,127
49.81,123
49.86,143
49.91,149
49.96,164
50.01,168
50.06,192
50.11,175
50.16,194
50.21,169
50.26,134
50.31,145
50.36,140
50.41,131
50.46,115
50.51,117
50.56,106
50.61,122
50.66,110
50.71,121
50.76,109
50.81,104
50.86,102
50.91,113
50.96,112
51.01,103
51.06,108
51.11,85
51.16,98
51.21,111
51.26,96
51.31,102
51.36,94
51.41,111
51.46,122
51.51,121
51.56,108
51.61,100
51.66,109
51.71,95
51.76,109
51.81,106
51.86,112
51.91,98
51.96,106
52.01,120
52.06,100
52.11,91
52.16,114
52.21,104
52.26,98
52.31,108
52.36,101
52.41,112
52.46,126
52.51,119
52.56,91
52.61,102
52.66,123
52.71,106
52.76,116
52.81,128
52.86,146
52.91,146
52.96,158
53.01,159
53.06,155
53.11,132
53.16,121
53.21,120
53.26,125
53.31,111
53.36,111
53.41,84
53.46,113
53.51,91
53.56,107
53.61,111
53.66,125
53.71,100
53.76,141
53.81,127
53.86,144
53.91,143
53.96,142
54.01,152
54.06,152
54.11,155
54.16,144
54.21,159
54.26,131
54.31,154
54.36,139
54.41,103
54.46,124
54.51,141
54.56,138
54.61,151
54.66,176
54.71,187
54.76,196
54.81,204
54.86,266
54.91,302
54.96,289
55.01,302
55.06,311
55.11,288
55.16,252
55.21,222
55.26,211
55.31,185
55.36,155
55.41,157
55.46,154
55.51,128
55.56,128
55.61,133
55.66,146
55.71,190
55.76,170
55.81,183
55.86,207
55.91,235
55.96,247
56.01,275
56.06,317
56.11,315
56.16,301
56.21,274
56.26,234
56.31,232
56.36,234
56.41,227
56.46,223
56.51,299
56.56,437
56.61,460
56.66,367
56.71,434
56.76,363
56.81,258
56.86,237
56.91,230
56.96,178
57.01,171
57.06,146
57.11,141
57.16,153
57.21,130
57.26,156
57.31,239
57.36,461
57.41,714
57.46,530
57.51,390
57.56,460
57.61,318
57.66,207
57.71,121
57.76,138
57.81,147
57.86,107
57.91,126
57.96,117
58.01,116
58.06,157
58.11,169
58.16,136
58.21,140
58.26,140
58.31,128
58.36,91
58.41,118
58.46,110
58.51,129
58.56,125
58.61,138
58.66,101
58.71,88
58.76,92
58.81,94
58.86,93
58.91,106
58.96,108
59.01,106
59.06,109
59.11,142
59.16,145
59.21,127
59.26,152
59.31,193
59.36,209
59.41,172
59.46,200
59.51,178
59.56,176
59.61,180
59.66,159
59.71,114
59.76,127
59.81,125
59.86,106
59.91,128
59.96,127
60.01,136
60.06,154
60.11,132
60.16,132
60.21,137
60.26,129
60.31,154
60.36,137
60.41,152
60.46,134
60.51,98
60.56,171
60.61,270
60.66,521
60.71,482
60.76,262
60.81,329
60.86,381
60.91,320
60.96,292
61.01,372
61.06,336
61.11,303
61.16,336
61.21,315
61.26,327
61.31,351
61.36,421
61.41,409
61.46,319
61.51,308
61.56,273
61.61,257
61.66,201
61.71,182
61.76,184
61.81,185
61.86,184
61.91,145
61.96,165
62.01,169
62.06,148
62.11,146
62.16,153
62.21,142
62.26,138
62.31,134
62.36,134
62.41,127
62.46,146
62.51,153
62.56,161
62.61,131
62.66,136
62.71,116
62.76,118
62.81,115
62.86,132
62.91,125
62.96,152
63.01,191
63.06,259
63.11,195
63.16,173
63.21,172
63.26,165
63.31,149
63.36,104
63.41,102
63.46,110
63.51,110
63.56,105
63.61,100
63.66,75
63.71,94
63.76,100
63.81,95
63.86,85
63.91,86
63.96,92
64.01,81
64.06,105
64.11,98
64.16,74
64.21,93
64.26,96
64.31,92
64.36,91
64.41,97
64.46,94
64.51,117
64.56,135
64.61,242
64.66,407
64.71,326
64.76,173
64.81,244
64.86,247
64.91,188
64.96,112
65.01,94
65.06,96
65.11,81
65.16,79
65.21,78
65.26,99
65.31,98
65.36,105
65.41,87
65.46,95
65.51,137
65.56,184
65.61,307
65.66,255
65.71,179
65.76,178
65.81,208
65.86,191
65.91,103
65.96,85
66.01,100
66.06,83
66.11,77
66.16,79
66.21,77
66.26,78
66.31,90
66.36,58
66.41,92
66.46,98
66.51,79
66.56,95
66.61,94
66.66,75
66.71,80
66.76,69
66.81,90
66.86,80
66.91,91
66.96,107
67.01,71
67.06,83
67.11,99
67.16,91
67.21,91
67.26,95
67.31,75
67.36,95
67.41,82
67.46,99
67.51,76
67.56,90
67.61,92
67.66,96
67.71,83
67.76,109
67.81,101
67.86,101
67.91,95
67.96,104
68.01,113
68.06,132
68.11,130
68.16,154
68.21,171
68.26,194
68.31,204
68.36,201
68.41,261
68.46,261
68.51,261
68.56,334
68.61,281
68.66,323
68.71,298
68.76,285
68.81,283
68.86,260
68.91,263
68.96,242
69.01,245
69.06,241
69.11,264
69.16,273
69.21,238
69.26,213
69.31,170
69.36,207
69.41,165
69.46,165
69.51,140
69.56,143
69.61,132
69.66,137
69.71,148
69.76,168
69.81,166
69.86,191
69.91,188
69.96,225