File: Fig S2/FigS2_C_XRD_ACBC_x37.csv
Bragg_angle,Intensity
\circ,a.u.
5,361
5.1,394
5.2,369
5.3,343
5.4,339
5.5,356
5.6,329
5.7,313
5.8,321
5.9,300
6,354
6.1,353
6.2,344
6.3,335
6.4,329
6.5,314
6.6,330
6.7,314
6.8,321
6.9,277
7,276
7.1,259
7.2,293
7.3,256
7.4,284
7.5,248
7.6,248
7.7,283
7.8,246
7.9,226
8,277
8.1,260
8.2,265
8.3,241
8.4,258
8.5,264
8.6,262
8.7,268
8.8,253
8.9,260
9,306
9.1,339
9.2,369
9.3,380
9.4,419
9.5,447
9.6,388
9.7,402
9.8,450
9.9,452
10,373
10.1,455
10.2,384
10.3,386
10.4,353
10.5,314
10.6,271
10.7,241
10.8,214
10.9,247
11,231
11.1,206
11.2,206
11.3,216
11.4,200
11.5,216
11.6,226
11.7,179
11.8,219
11.9,209
12,192
12.1,209
12.2,216
12.3,194
12.4,214
12.5,205
12.6,222
12.7,214
12.8,197
12.9,222
13,233
13.1,194
13.2,205
13.3,190
13.4,211
13.5,200
13.6,200
13.7,178
13.8,183
13.9,198
14,200
14.1,180
14.2,205
14.3,210
14.4,209
14.5,197
14.6,199
14.7,200
14.8,225
14.9,196
15,208
15.1,191
15.2,204
15.3,201
15.4,192
15.5,215
15.6,219
15.7,206
15.8,207
15.9,187
16,204
16.1,214
16.2,214
16.3,208
16.4,196
16.5,203
16.6,208
16.7,211
16.8,171
16.9,184
17,169
17.1,174
17.2,195
17.3,198
17.4,183
17.5,170
17.6,151
17.7,211
17.8,168
17.9,191
18,210
18.1,195
18.2,195
18.3,181
18.4,199
18.5,166
18.6,174
18.7,183
18.8,175
18.9,158
19,193
19.1,171
19.2,189
19.3,217
19.4,204
19.5,176
19.6,182
19.7,188
19.8,203
19.9,192
20,187
20.1,225
20.2,216
20.3,216
20.4,191
20.5,189
20.6,197
20.7,179
20.8,173
20.9,183
21,204
21.1,198
21.2,177
21.3,227
21.4,204
21.5,207
21.6,206
21.7,207
21.8,197
21.9,228
22,234
22.1,291
22.2,333
22.3,438
22.4,577
22.5,851
22.6,1132
22.7,1212
22.8,792
22.9,523
23,385
23.1,284
23.2,237
23.3,247
23.4,199
23.5,214
23.6,181
23.7,200
23.8,194
23.9,154
24,182
24.1,181
24.2,179
24.3,199
24.4,158
24.5,196
24.6,195
24.7,158
24.8,211
24.9,204
25,218
25.1,183
25.2,188
25.3,163
25.4,171
25.5,188
25.6,202
25.7,164
25.8,170
25.9,206
26,210
26.1,197
26.2,149
26.3,170
26.4,166
26.5,167
26.6,169
26.7,190
26.8,205
26.9,193
27,218
27.1,224
27.2,226
27.3,179
27.4,208
27.5,209
27.6,186
27.7,198
27.8,248
27.9,259
28,332
28.1,350
28.2,447
28.3,692
28.4,953
28.5,1576
28.6,2409
28.7,3125
28.8,2413
28.9,1427
29,806
29.1,521
29.2,344
29.3,271
29.4,246
29.5,208
29.6,218
29.7,155
29.8,199
29.9,178
30,174
30.1,173
30.2,193
30.3,200
30.4,173
30.5,195
30.6,174
30.7,148
30.8,155
30.9,152
31,156
31.1,142
31.2,156
31.3,132
31.4,175
31.5,148
31.6,161
31.7,159
31.8,203
31.9,162
32,130
32.1,152
32.2,154
32.3,140
32.4,168
32.5,150
32.6,138
32.7,187
32.8,207
32.9,183
33,151
33.1,157
33.2,147
33.3,143
33.4,163
33.5,149
33.6,144
33.7,141
33.8,144
33.9,160
34,133
34.1,171
34.2,145
34.3,173
34.4,159
34.5,190
34.6,175
34.7,177
34.8,173
34.9,210
35,222
35.1,301
35.2,430
35.3,568
35.4,711
35.5,788
35.6,609
35.7,438
35.8,309
35.9,268
36,214
36.1,203
36.2,198
36.3,180
36.4,177
36.5,161
36.6,167
36.7,187
36.8,186
36.9,153
37,189
37.1,176
37.2,200
37.3,167
37.4,157
37.5,167
37.6,163
37.7,154
37.8,173
37.9,156
38,152
38.1,194
38.2,155
38.3,171
38.4,175
38.5,153
38.6,147
38.7,178
38.8,173
38.9,172
39,162
39.1,164
39.2,172
39.3,161
39.4,166
39.5,168
39.6,177
39.7,181
39.8,147
39.9,164
40,194
40.1,153
40.2,160
40.3,168
40.4,170
40.5,165
40.6,157
40.7,183
40.8,165
40.9,174
41,161
41.1,162
41.2,170
41.3,168
41.4,195
41.5,231
41.6,184
41.7,207
41.8,190
41.9,232
42,237
42.1,288
42.2,393
42.3,496
42.4,656
42.5,729
42.6,571
42.7,481
42.8,341
42.9,285
43,245
43.1,201
43.2,187
43.3,179
43.4,189
43.5,163
43.6,208
43.7,188
43.8,214
43.9,202
44,181
44.1,211
44.2,195
44.3,179
44.4,171
44.5,185
44.6,170
44.7,195
44.8,192
44.9,200
45,210
45.1,189
45.2,207
45.3,224
45.4,309
45.5,294
45.6,331
45.7,424
45.8,504
45.9,599
46,665
46.1,660
46.2,544
46.3,526
46.4,448
46.5,354
46.6,288
46.7,306
46.8,290
46.9,329
47,341
47.1,416
47.2,456
47.3,540
47.4,538
47.5,481
47.6,363
47.7,282
47.8,241
47.9,165
48,154
48.1,144
48.2,162
48.3,150
48.4,158
48.5,132
48.6,154
48.7,128
48.8,123
48.9,127
49,152
49.1,140
49.2,140
49.3,131
49.4,121
49.5,105
49.6,119
49.7,116
49.8,111
49.9,129
50,125
50.1,145
50.2,126
50.3,126
50.4,111
50.5,113
50.6,115
50.7,107
50.8,93
50.9,101
51,114
51.1,105
51.2,91
51.3,101
51.4,93
51.5,100
51.6,92
51.7,109
51.8,92
51.9,88
52,80
52.1,76
52.2,101
52.3,98
52.4,94
52.5,122
52.6,86
52.7,87
52.8,95
52.9,94
53,88
53.1,113
53.2,108
53.3,86
53.4,92
53.5,69
53.6,76
53.7,86
53.8,101
53.9,76
54,102
54.1,82
54.2,88
54.3,95
54.4,77
54.5,94
54.6,88
54.7,95
54.8,81
54.9,105
55,106
55.1,90
55.2,114
55.3,109
55.4,126
55.5,131
55.6,140
55.7,150
55.8,164
55.9,167
56,186
56.1,230
56.2,269
56.3,244
56.4,283
56.5,269
56.6,247
56.7,210
56.8,157
56.9,154
57,120
57.1,121
57.2,110
57.3,100
57.4,103
57.5,121
57.6,112
57.7,103
57.8,88
57.9,104
58,102
58.1,88
58.2,105
58.3,100
58.4,115
58.5,114
58.6,93
58.7,115
58.8,118
58.9,131
59,125
59.1,181
59.2,204
59.3,233
59.4,241
59.5,258
59.6,248
59.7,227
59.8,181
59.9,163
60,144
60.1,112
60.2,131
60.3,132
60.4,113
60.5,117
60.6,108
60.7,101
60.8,102
60.9,106
61,101
61.1,105
61.2,106
61.3,95
61.4,98
61.5,93
61.6,118
61.7,103
61.8,115
61.9,88
62,84
62.1,110
62.2,104
62.3,116
62.4,98
62.5,106
62.6,124
62.7,146
62.8,105
62.9,140
63,129
63.1,129
63.2,141
63.3,169
63.4,154
63.5,138
63.6,166
63.7,154
63.8,135
63.9,154
64,113
64.1,130
64.2,123
64.3,105
64.4,131
64.5,95
64.6,100
64.7,105
64.8,84
64.9,102
65,103
65.1,94
65.2,91
65.3,103
65.4,94
65.5,93
65.6,107
65.7,98
65.8,98
65.9,117
66,88
66.1,93
66.2,95
66.3,98
66.4,102
66.5,112
66.6,104
66.7,89
66.8,110
66.9,107
67,84
67.1,91
67.2,93
67.3,108
67.4,98
67.5,95
67.6,88
67.7,107
67.8,117
67.9,110
68,110
68.1,123
68.2,113
68.3,120
68.4,112
68.5,102
68.6,95
68.7,103
68.8,81
68.9,94
69,106
69.1,85
69.2,97
69.3,85
69.4,91
69.5,108
69.6,87
69.7,126
69.8,114
69.9,101
70,111
70.1,117
70.2,97
70.3,117
70.4,126
70.5,119
70.6,128
70.7,138
70.8,144
70.9,129
71,143
71.1,159
71.2,131
71.3,133
71.4,144
71.5,130
71.6,134
71.7,138
71.8,117
71.9,155
72,153
72.1,160
72.2,137
72.3,133
72.4,132
72.5,133
72.6,116
72.7,109
72.8,129
72.9,117
73,109
73.1,96
73.2,95
73.3,94
73.4,102
73.5,106
73.6,112
73.7,113
73.8,101
73.9,98
74,117
74.1,109
74.2,120
74.3,114
74.4,111
74.5,146
74.6,156
74.7,137
74.8,133
74.9,124
75,148
75.1,129
75.2,129
75.3,125
75.4,106
75.5,95
75.6,109
75.7,97
75.8,70
75.9,85
76,77
76.1,98
76.2,93
76.3,76
76.4,79
76.5,71
76.6,84
76.7,88
76.8,78
76.9,83
77,86
77.1,63
77.2,75
77.3,88
77.4,79
77.5,86
77.6,90
77.7,88
77.8,90
77.9,89
78,82
78.1,97
78.2,92
78.3,98
78.4,81
78.5,94
78.6,100
78.7,105
78.8,86
78.9,116
79,106
79.1,116
79.2,121
79.3,107
79.4,111
79.5,98
79.6,107
79.7,108
79.8,102
79.9,114
80,86