File: Fig S2/FigS2_A_XRD_mixture_x25.csv
Bragg_angle,Intensity
\circ,a.u.
5,242
5.06,275
5.12,242
5.18,249
5.24,297
5.3,259
5.36,232
5.42,263
5.48,225
5.54,245
5.6,234
5.66,222
5.72,234
5.78,217
5.84,233
5.9,189
5.96,212
6.02,200
6.08,204
6.14,206
6.2,186
6.26,177
6.32,204
6.38,225
6.44,190
6.5,204
6.56,213
6.62,220
6.68,201
6.74,226
6.8,184
6.86,212
6.92,172
6.98,202
7.04,196
7.1,172
7.16,167
7.22,171
7.28,184
7.34,184
7.4,163
7.46,183
7.52,179
7.58,193
7.64,190
7.7,164
7.76,178
7.82,186
7.88,164
7.94,182
8,166
8.06,186
8.12,199
8.18,168
8.24,183
8.3,169
8.36,180
8.42,167
8.48,187
8.54,187
8.6,168
8.66,173
8.72,167
8.78,187
8.84,174
8.9,186
8.96,233
9.02,248
9.08,198
9.14,221
9.2,241
9.26,222
9.32,277
9.38,267
9.44,254
9.5,277
9.56,271
9.62,269
9.68,254
9.74,254
9.8,263
9.86,257
9.92,279
9.98,263
10.04,262
10.1,257
10.16,239
10.22,238
10.28,233
10.34,231
10.4,209
10.46,203
10.52,205
10.58,153
10.64,161
10.7,146
10.76,145
10.82,137
10.88,148
10.94,147
11,146
11.06,131
11.12,139
11.18,143
11.24,124
11.3,119
11.36,124
11.42,139
11.48,131
11.54,151
11.6,114
11.66,100
11.72,154
11.78,109
11.84,140
11.9,135
11.96,145
12.02,123
12.08,123
12.14,124
12.2,134
12.26,144
12.32,129
12.38,123
12.44,146
12.5,104
12.56,136
12.62,130
12.68,111
12.74,133
12.8,126
12.86,129
12.92,128
12.98,128
13.04,131
13.1,144
13.16,132
13.22,135
13.28,126
13.34,118
13.4,121
13.46,146
13.52,103
13.58,123
13.64,130
13.7,100
13.76,115
13.82,118
13.88,113
13.94,119
14,125
14.06,129
14.12,114
14.18,144
14.24,131
14.3,96
14.36,124
14.42,101
14.48,114
14.54,121
14.6,116
14.66,111
14.72,111
14.78,123
14.84,111
14.9,117
14.96,116
15.02,117
15.08,118
15.14,130
15.2,112
15.26,116
15.32,103
15.38,128
15.44,126
15.5,122
15.56,109
15.62,120
15.68,98
15.74,103
15.8,119
15.86,119
15.92,113
15.98,111
16.04,98
16.1,103
16.16,118
16.22,103
16.28,106
16.34,95
16.4,89
16.46,78
16.52,100
16.58,106
16.64,95
16.7,106
16.76,95
16.82,94
16.88,83
16.94,96
17,95
17.06,110
17.12,87
17.18,100
17.24,96
17.3,94
17.36,102
17.42,103
17.48,91
17.54,99
17.6,97
17.66,98
17.72,94
17.78,71
17.84,103
17.9,85
17.96,122
18.02,84
18.08,92
18.14,83
18.2,90
18.26,78
18.32,101
18.38,86
18.44,89
18.5,77
18.56,68
18.62,91
18.68,84
18.74,83
18.8,76
18.86,96
18.92,95
18.98,96
19.04,84
19.1,80
19.16,110
19.22,111
19.28,114
19.34,122
19.4,164
19.46,249
19.52,363
19.58,282
19.64,218
19.7,175
19.76,155
19.82,151
19.88,172
19.94,162
20,154
20.06,129
20.12,112
20.18,98
20.24,85
20.3,91
20.36,88
20.42,80
20.48,71
20.54,81
20.6,80
20.66,92
20.72,95
20.78,80
20.84,79
20.9,85
20.96,78
21.02,79
21.08,89
21.14,81
21.2,82
21.26,66
21.32,74
21.38,80
21.44,74
21.5,89
21.56,78
21.62,107
21.68,94
21.74,82
21.8,81
21.86,100
21.92,88
21.98,74
22.04,62
22.1,78
22.16,78
22.22,74
22.28,74
22.34,72
22.4,76
22.46,74
22.52,66
22.58,65
22.64,72
22.7,73
22.76,75
22.82,84
22.88,89
22.94,107
23,160
23.06,232
23.12,475
23.18,415
23.24,164
23.3,96
23.36,94
23.42,88
23.48,123
23.54,92
23.6,165
23.66,176
23.72,288
23.78,411
23.84,741
23.9,1363
23.96,2677
24.02,2658
24.08,1750
24.14,1182
24.2,1048
24.26,1098
24.32,1136
24.38,1048
24.44,657
24.5,335
24.56,202
24.62,158
24.68,129
24.74,104
24.8,106
24.86,88
24.92,122
24.98,88
25.04,92
25.1,100
25.16,97
25.22,80
25.28,78
25.34,88
25.4,94
25.46,84
25.52,83
25.58,83
25.64,97
25.7,71
25.76,78
25.82,79
25.88,72
25.94,71
26,63
26.06,70
26.12,70
26.18,70
26.24,62
26.3,77
26.36,77
26.42,80
26.48,78
26.54,105
26.6,135
26.66,93
26.72,66
26.78,85
26.84,68
26.9,64
26.96,85
27.02,68
27.08,63
27.14,59
27.2,82
27.26,69
27.32,63
27.38,74
27.44,69
27.5,72
27.56,80
27.62,99
27.68,160
27.74,284
27.8,464
27.86,340
27.92,209
27.98,86
28.04,74
28.1,75
28.16,64
28.22,63
28.28,79
28.34,68
28.4,73
28.46,77
28.52,87
28.58,74
28.64,77
28.7,93
28.76,72
28.82,90
28.88,85
28.94,88
29,86
29.06,105
29.12,106
29.18,149
29.24,245
29.3,473
29.36,975
29.42,3067
29.48,6436
29.54,4238
29.6,1659
29.66,336
29.72,244
29.78,154
29.84,111
29.9,84
29.96,92
30.02,85
30.08,69
30.14,90
30.2,86
30.26,74
30.32,67
30.38,79
30.44,63
30.5,69
30.56,84
30.62,69
30.68,74
30.74,81
30.8,64
30.86,72
30.92,80
30.98,60
31.04,60
31.1,73
31.16,71
31.22,77
31.28,89
31.34,72
31.4,85
31.46,153
31.52,203
31.58,155
31.64,105
31.7,87
31.76,59
31.82,63
31.88,59
31.94,69
32,75
32.06,49
32.12,66
32.18,54
32.24,78
32.3,62
32.36,76
32.42,80
32.48,88
32.54,91
32.6,96
32.66,92
32.72,90
32.78,78
32.84,63
32.9,82
32.96,60
33.02,68
33.08,85
33.14,89
33.2,72
33.26,71
33.32,80
33.38,82
33.44,91
33.5,106
33.56,100
33.62,125
33.68,153
33.74,234
33.8,286
33.86,287
33.92,283
33.98,263
34.04,326
34.1,457
34.16,731
34.22,729
34.28,656
34.34,509
34.4,535
34.46,533
34.52,525
34.58,556
34.64,686
34.7,586
34.76,459
34.82,245
34.88,143
34.94,98
35,89
35.06,88
35.12,79
35.18,66
35.24,67
35.3,85
35.36,62
35.42,62
35.48,54
35.54,67
35.6,74
35.66,60
35.72,62
35.78,81
35.84,67
35.9,129
35.96,197
36.02,524
36.08,535
36.14,323
36.2,129
36.26,85
36.32,48
36.38,55
36.44,58
36.5,48
36.56,52
36.62,63
36.68,53
36.74,52
36.8,52
36.86,40
36.92,52
36.98,52
37.04,59
37.1,54
37.16,69
37.22,56
37.28,59
37.34,54
37.4,47
37.46,41
37.52,59
37.58,58
37.64,51
37.7,56
37.76,61
37.82,58
37.88,60
37.94,66
38,61
38.06,56
38.12,67
38.18,67
38.24,70
38.3,64
38.36,49
38.42,60
38.48,66
38.54,68
38.6,54
38.66,46
38.72,53
38.78,64
38.84,50
38.9,68
38.96,59
39.02,55
39.08,62
39.14,60
39.2,65
39.26,75
39.32,97
39.38,207
39.44,652
39.5,916
39.56,642
39.62,502
39.68,212
39.74,119
39.8,103
39.86,81
39.92,79
39.98,71
40.04,78
40.1,67
40.16,53
40.22,58
40.28,72
40.34,75
40.4,93
40.46,98
40.52,90
40.58,106
40.64,92
40.7,71
40.76,62
40.82,58
40.88,55
40.94,51
41,54
41.06,48
41.12,67
41.18,56
41.24,60
41.3,45
41.36,60
41.42,67
41.48,65
41.54,72
41.6,55
41.66,59
41.72,66
41.78,104
41.84,143
41.9,179
41.96,291
42.02,612
42.08,833
42.14,697
42.2,530
42.26,344
42.32,261
42.38,183
42.44,166
42.5,147
42.56,137
42.62,126
42.68,166
42.74,159
42.8,159
42.86,193
42.92,240
42.98,283
43.04,341
43.1,293
43.16,430
43.22,858
43.28,535
43.34,483
43.4,231
43.46,101
43.52,77
43.58,74
43.64,81
43.7,86
43.76,75
43.82,59
43.88,74
43.94,71
44,69
44.06,68
44.12,108
44.18,155
44.24,242
44.3,283
44.36,270
44.42,255
44.48,212
44.54,215
44.6,225
44.66,200
44.72,226
44.78,281
44.84,341
44.9,481
44.96,559
45.02,468
45.08,371
45.14,232
45.2,126
45.26,85
45.32,69
45.38,79
45.44,63
45.5,78
45.56,48
45.62,64
45.68,66
45.74,53
45.8,70
45.86,53
45.92,70
45.98,52
46.04,61
46.1,73
46.16,72
46.22,61
46.28,55
46.34,42
46.4,65
46.46,52
46.52,67
46.58,75
46.64,71
46.7,128
46.76,200
46.82,377
46.88,522
46.94,459
47,504
47.06,412
47.12,392
47.18,446
47.24,303
47.3,241
47.36,148
47.42,137
47.48,224
47.54,726
47.6,884
47.66,458
47.72,501
47.78,158
47.84,75
47.9,74
47.96,62
48.02,69
48.08,52
48.14,67
48.2,62
48.26,60
48.32,83
48.38,104
48.44,148
48.5,330
48.56,963
48.62,675
48.68,554
48.74,411
48.8,110
48.86,89
48.92,94
48.98,139
49.04,103
49.1,121
49.16,105
49.22,101
49.28,62
49.34,73
49.4,59
49.46,61
49.52,59
49.58,68
49.64,61
49.7,75
49.76,61
49.82,91
49.88,85
49.94,54
50,64
50.06,57
50.12,50
50.18,51
50.24,53
50.3,56
50.36,49
50.42,43
50.48,44
50.54,53
50.6,53
50.66,39
50.72,36
50.78,46
50.84,46
50.9,48
50.96,39
51.02,48
51.08,48
51.14,45
51.2,47
51.26,41
51.32,37
51.38,47
51.44,43
51.5,40
51.56,47
51.62,46
51.68,47
51.74,48
51.8,39
51.86,39
51.92,33
51.98,41
52.04,42
52.1,44
52.16,43
52.22,36
52.28,51
52.34,49
52.4,42
52.46,48
52.52,47
52.58,40
52.64,55
52.7,64
52.76,77
52.82,66
52.88,69
52.94,56
53,75
53.06,49
53.12,55
53.18,56
53.24,47
53.3,47
53.36,61
53.42,57
53.48,63
53.54,74
53.6,54
53.66,64
53.72,77
53.78,66
53.84,85
53.9,76
53.96,56
54.02,61
54.08,65
54.14,65
54.2,47
54.26,57
54.32,63
54.38,88
54.44,55
54.5,64
54.56,90
54.62,95
54.68,97
54.74,127
54.8,138
54.86,156
54.92,140
54.98,157
55.04,122
55.1,100
55.16,93
55.22,86
55.28,97
55.34,110
55.4,93
55.46,107
55.52,82
55.58,117
55.64,176
55.7,174
55.76,207
55.82,168
55.88,162
55.94,151
56,112
56.06,114
56.12,129
56.18,128
56.24,135
56.3,151
56.36,168
56.42,172
56.48,132
56.54,115
56.6,201
56.66,181
56.72,80
56.78,118
56.84,73
56.9,65
56.96,47
57.02,48
57.08,44
57.14,50
57.2,49
57.26,77
57.32,104
57.38,166
57.44,359
57.5,365
57.56,168
57.62,213
57.68,141
57.74,58
57.8,38
57.86,53
57.92,53
57.98,48
58.04,53
58.1,65
58.16,88
58.22,65
58.28,75
58.34,63
58.4,43
58.46,50
58.52,42
58.58,38
58.64,43
58.7,49
58.76,44
58.82,26
58.88,38
58.94,55
59,51
59.06,60
59.12,103
59.18,120
59.24,100
59.3,87
59.36,87
59.42,81
59.48,58
59.54,49
59.6,48
59.66,66
59.72,56
59.78,54
59.84,58
59.9,57
59.96,58
60.02,68
60.08,42
60.14,55
60.2,40
60.26,44
60.32,50
60.38,58
60.44,56
60.5,59
60.56,65
60.62,88
60.68,175
60.74,331
60.8,190
60.86,214
60.92,253
60.98,215
61.04,258
61.1,313
61.16,183
61.22,193
61.28,191
61.34,157
61.4,205
61.46,231
61.52,119
61.58,153
61.64,147
61.7,95
61.76,98
61.82,67
61.88,60
61.94,85
62,65
62.06,79
62.12,75
62.18,66
62.24,69
62.3,60
62.36,66
62.42,70
62.48,70
62.54,68
62.6,67
62.66,68
62.72,59
62.78,50
62.84,59
62.9,48
62.96,57
63.02,56
63.08,105
63.14,105
63.2,77
63.26,78
63.32,81
63.38,30
63.44,37
63.5,47
63.56,29
63.62,45
63.68,32
63.74,31
63.8,35
63.86,33
63.92,34
63.98,42
64.04,41
64.1,30
64.16,44
64.22,38
64.28,41
64.34,31
64.4,36
64.46,32
64.52,40
64.58,52
64.64,80
64.7,231
64.76,214
64.82,94
64.88,125
64.94,115
65,54
65.06,48
65.12,36
65.18,33
65.24,29
65.3,24
65.36,19
65.42,42
65.48,33
65.54,48
65.6,107
65.66,236
65.72,167
65.78,91
65.84,161
65.9,115
65.96,43
66.02,42
66.08,30
66.14,41
66.2,36
66.26,29
66.32,26
66.38,31
66.44,34
66.5,32
66.56,27
66.62,37
66.68,34
66.74,46
66.8,36
66.86,27
66.92,39
66.98,46
67.04,41
67.1,41
67.16,37
67.22,38
67.28,32
67.34,48
67.4,42
67.46,38
67.52,33
67.58,27
67.64,56
67.7,47
67.76,43
67.82,50
67.88,41
67.94,45
68,56
68.06,82
68.12,119
68.18,173
68.24,196
68.3,194
68.36,163
68.42,156
68.48,151
68.54,127
68.6,127
68.66,144
68.72,163
68.78,130
68.84,122
68.9,90
68.96,94
69.02,70
69.08,58
69.14,65
69.2,88
69.26,109
69.32,66
69.38,67
69.44,114
69.5,93
69.56,76
69.62,130
69.68,137
69.74,166
69.8,142
69.86,136
69.92,130
69.98,114
70.01,104
,