File: Fig S2/FigS2_A_XRD_mixture_x875.csv
Bragg_angle,Intensity
\circ,a.u.
5,207
5.06,213
5.12,230
5.18,224
5.24,238
5.3,233
5.36,237
5.42,256
5.48,227
5.54,206
5.6,241
5.66,219
5.72,215
5.78,190
5.84,198
5.9,200
5.96,178
6.02,165
6.08,163
6.14,164
6.2,175
6.26,152
6.32,161
6.38,153
6.44,146
6.5,147
6.56,150
6.62,151
6.68,173
6.74,139
6.8,134
6.86,137
6.92,122
6.98,148
7.04,142
7.1,146
7.16,136
7.22,146
7.28,167
7.34,137
7.4,154
7.46,166
7.52,160
7.58,154
7.64,180
7.7,141
7.76,145
7.82,161
7.88,151
7.94,154
8,161
8.06,142
8.12,146
8.18,137
8.24,152
8.3,118
8.36,128
8.42,127
8.48,144
8.54,129
8.6,128
8.66,129
8.72,139
8.78,126
8.84,113
8.9,162
8.96,141
9.02,143
9.08,168
9.14,165
9.2,194
9.26,194
9.32,206
9.38,223
9.44,211
9.5,209
9.56,209
9.62,225
9.68,235
9.74,227
9.8,240
9.86,220
9.92,231
9.98,237
10.04,238
10.1,197
10.16,209
10.22,201
10.28,200
10.34,210
10.4,169
10.46,169
10.52,173
10.58,155
10.64,148
10.7,111
10.76,121
10.82,132
10.88,130
10.94,128
11,114
11.06,98
11.12,130
11.18,118
11.24,105
11.3,107
11.36,114
11.42,121
11.48,122
11.54,99
11.6,117
11.66,127
11.72,98
11.78,110
11.84,148
11.9,107
11.96,119
12.02,126
12.08,107
12.14,128
12.2,118
12.26,135
12.32,108
12.38,130
12.44,136
12.5,111
12.56,117
12.62,120
12.68,109
12.74,133
12.8,111
12.86,134
12.92,122
12.98,124
13.04,128
13.1,86
13.16,105
13.22,116
13.28,119
13.34,93
13.4,111
13.46,109
13.52,110
13.58,93
13.64,108
13.7,90
13.76,106
13.82,101
13.88,107
13.94,103
14,99
14.06,99
14.12,122
14.18,95
14.24,110
14.3,123
14.36,101
14.42,83
14.48,117
14.54,121
14.6,122
14.66,112
14.72,128
14.78,114
14.84,118
14.9,113
14.96,116
15.02,81
15.08,99
15.14,104
15.2,101
15.26,104
15.32,105
15.38,108
15.44,106
15.5,117
15.56,109
15.62,109
15.68,113
15.74,96
15.8,106
15.86,106
15.92,103
15.98,107
16.04,103
16.1,101
16.16,108
16.22,91
16.28,86
16.34,105
16.4,98
16.46,88
16.52,86
16.58,98
16.64,73
16.7,88
16.76,90
16.82,103
16.88,93
16.94,99
17,85
17.06,101
17.12,111
17.18,78
17.24,88
17.3,94
17.36,77
17.42,82
17.48,81
17.54,95
17.6,88
17.66,84
17.72,100
17.78,87
17.84,102
17.9,90
17.96,102
18.02,82
18.08,91
18.14,100
18.2,100
18.26,80
18.32,85
18.38,102
18.44,100
18.5,90
18.56,98
18.62,81
18.68,75
18.74,92
18.8,83
18.86,82
18.92,87
18.98,86
19.04,102
19.1,101
19.16,86
19.22,102
19.28,111
19.34,151
19.4,169
19.46,240
19.52,469
19.58,700
19.64,729
19.7,459
19.76,306
19.82,282
19.88,242
19.94,285
20,305
20.06,317
20.12,232
20.18,158
20.24,110
20.3,93
20.36,98
20.42,99
20.48,88
20.54,104
20.6,94
20.66,71
20.72,81
20.78,97
20.84,85
20.9,83
20.96,86
21.02,83
21.08,86
21.14,81
21.2,76
21.26,83
21.32,78
21.38,82
21.44,93
21.5,97
21.56,92
21.62,115
21.68,107
21.74,112
21.8,102
21.86,117
21.92,94
21.98,107
22.04,84
22.1,103
22.16,81
22.22,79
22.28,90
22.34,77
22.4,68
22.46,61
22.52,78
22.58,75
22.64,74
22.7,79
22.76,66
22.82,84
22.88,67
22.94,67
23,92
23.06,82
23.12,90
23.18,108
23.24,97
23.3,117
23.36,106
23.42,141
23.48,128
23.54,136
23.6,167
23.66,174
23.72,280
23.78,348
23.84,588
23.9,1087
23.96,1962
24.02,3698
24.08,4182
24.14,2981
24.2,1872
24.26,1633
24.32,1616
24.38,1710
24.44,1653
24.5,1076
24.56,530
24.62,314
24.68,213
24.74,189
24.8,128
24.86,122
24.92,113
24.98,102
25.04,105
25.1,98
25.16,117
25.22,101
25.28,105
25.34,87
25.4,85
25.46,80
25.52,82
25.58,80
25.64,92
25.7,71
25.76,86
25.82,87
25.88,76
25.94,90
26,67
26.06,76
26.12,82
26.18,83
26.24,70
26.3,78
26.36,75
26.42,91
26.48,83
26.54,77
26.6,68
26.66,87
26.72,83
26.78,70
26.84,79
26.9,80
26.96,68
27.02,73
27.08,76
27.14,77
27.2,80
27.26,78
27.32,68
27.38,78
27.44,82
27.5,89
27.56,94
27.62,87
27.68,101
27.74,138
27.8,253
27.86,426
27.92,376
27.98,190
28.04,101
28.1,74
28.16,77
28.22,71
28.28,68
28.34,70
28.4,61
28.46,74
28.52,77
28.58,59
28.64,67
28.7,68
28.76,71
28.82,59
28.88,82
28.94,74
29,60
29.06,57
29.12,79
29.18,70
29.24,71
29.3,96
29.36,105
29.42,137
29.48,235
29.54,525
29.6,453
29.66,297
29.72,183
29.78,131
29.84,106
29.9,97
29.96,87
30.02,85
30.08,68
30.14,87
30.2,68
30.26,72
30.32,64
30.38,68
30.44,63
30.5,53
30.56,62
30.62,78
30.68,71
30.74,60
30.8,69
30.86,91
30.92,77
30.98,67
31.04,91
31.1,74
31.16,63
31.22,83
31.28,78
31.34,79
31.4,87
31.46,72
31.52,73
31.58,73
31.64,63
31.7,57
31.76,74
31.82,63
31.88,57
31.94,69
32,51
32.06,72
32.12,72
32.18,61
32.24,68
32.3,81
32.36,69
32.42,77
32.48,64
32.54,81
32.6,87
32.66,96
32.72,74
32.78,101
32.84,82
32.9,78
32.96,62
33.02,62
33.08,80
33.14,72
33.2,78
33.26,75
33.32,111
33.38,107
33.44,112
33.5,118
33.56,121
33.62,169
33.68,218
33.74,274
33.8,376
33.86,582
33.92,565
33.98,560
34.04,483
34.1,516
34.16,706
34.22,926
34.28,1011
34.34,826
34.4,748
34.46,776
34.52,862
34.58,904
34.64,1128
34.7,1430
34.76,1396
34.82,967
34.88,545
34.94,321
35,165
35.06,127
35.12,114
35.18,107
35.24,107
35.3,84
35.36,78
35.42,73
35.48,72
35.54,57
35.6,75
35.66,59
35.72,72
35.78,68
35.84,74
35.9,62
35.96,67
36.02,70
36.08,82
36.14,88
36.2,90
36.26,75
36.32,55
36.38,61
36.44,59
36.5,57
36.56,70
36.62,59
36.68,61
36.74,53
36.8,54
36.86,49
36.92,56
36.98,54
37.04,49
37.1,68
37.16,50
37.22,58
37.28,54
37.34,58
37.4,62
37.46,61
37.52,55
37.58,60
37.64,61
37.7,58
37.76,89
37.82,65
37.88,80
37.94,61
38,70
38.06,86
38.12,89
38.18,79
38.24,69
38.3,70
38.36,60
38.42,66
38.48,53
38.54,63
38.6,51
38.66,55
38.72,68
38.78,64
38.84,54
38.9,49
38.96,68
39.02,77
39.08,69
39.14,65
39.2,64
39.26,74
39.32,88
39.38,110
39.44,99
39.5,194
39.56,378
39.62,475
39.68,421
39.74,316
39.8,195
39.86,136
39.92,137
39.98,101
40.04,96
40.1,97
40.16,93
40.22,90
40.28,92
40.34,103
40.4,105
40.46,114
40.52,134
40.58,150
40.64,188
40.7,150
40.76,103
40.82,85
40.88,83
40.94,72
41,64
41.06,67
41.12,55
41.18,70
41.24,74
41.3,68
41.36,82
41.42,81
41.48,80
41.54,87
41.6,79
41.66,76
41.72,97
41.78,118
41.84,154
41.9,175
41.96,298
42.02,538
42.08,978
42.14,1483
42.2,1250
42.26,1004
42.32,641
42.38,410
42.44,310
42.5,247
42.56,228
42.62,213
42.68,240
42.74,246
42.8,256
42.86,279
42.92,322
42.98,412
43.04,482
43.1,536
43.16,420
43.22,320
43.28,293
43.34,198
43.4,191
43.46,107
43.52,103
43.58,101
43.64,93
43.7,88
43.76,68
43.82,78
43.88,73
43.94,100
44,87
44.06,107
44.12,112
44.18,127
44.24,205
44.3,277
44.36,370
44.42,344
44.48,361
44.54,316
44.6,296
44.66,284
44.72,284
44.78,299
44.84,365
44.9,500
44.96,615
45.02,814
45.08,692
45.14,491
45.2,325
45.26,173
45.32,131
45.38,108
45.44,87
45.5,77
45.56,87
45.62,72
45.68,68
45.74,65
45.8,53
45.86,60
45.92,58
45.98,58
46.04,70
46.1,63
46.16,55
46.22,55
46.28,45
46.34,61
46.4,60
46.46,70
46.52,61
46.58,72
46.64,72
46.7,95
46.76,115
46.82,213
46.88,392
46.94,573
47,518
47.06,520
47.12,443
47.18,329
47.24,239
47.3,181
47.36,125
47.42,82
47.48,66
47.54,88
47.6,126
47.66,137
47.72,101
47.78,91
47.84,61
47.9,61
47.96,63
48.02,66
48.08,45
48.14,72
48.2,66
48.26,75
48.32,83
48.38,60
48.44,49
48.5,69
48.56,84
48.62,154
48.68,94
48.74,75
48.8,111
48.86,78
48.92,86
48.98,134
49.04,162
49.1,159
49.16,153
49.22,135
49.28,100
49.34,88
49.4,73
49.46,58
49.52,74
49.58,71
49.64,84
49.7,69
49.76,90
49.82,98
49.88,93
49.94,82
50,106
50.06,74
50.12,78
50.18,54
50.24,51
50.3,57
50.36,56
50.42,44
50.48,43
50.54,47
50.6,44
50.66,42
50.72,45
50.78,46
50.84,37
50.9,41
50.96,40
51.02,45
51.08,39
51.14,42
51.2,43
51.26,47
51.32,47
51.38,37
51.44,44
51.5,54
51.56,41
51.62,62
51.68,51
51.74,46
51.8,49
51.86,50
51.92,55
51.98,37
52.04,48
52.1,35
52.16,36
52.22,62
52.28,51
52.34,51
52.4,57
52.46,62
52.52,57
52.58,53
52.64,66
52.7,79
52.76,93
52.82,113
52.88,80
52.94,93
53,110
53.06,90
53.12,79
53.18,94
53.24,72
53.3,73
53.36,89
53.42,84
53.48,75
53.54,95
53.6,85
53.66,98
53.72,120
53.78,136
53.84,124
53.9,122
53.96,96
54.02,99
54.08,81
54.14,79
54.2,91
54.26,88
54.32,87
54.38,94
54.44,106
54.5,124
54.56,102
54.62,129
54.68,128
54.74,143
54.8,220
54.86,303
54.92,273
54.98,245
55.04,227
55.1,199
55.16,194
55.22,163
55.28,137
55.34,163
55.4,143
55.46,135
55.52,124
55.58,200
55.64,193
55.7,246
55.76,300
55.82,298
55.88,320
55.94,271
56,267
56.06,172
56.12,167
56.18,187
56.24,204
56.3,216
56.36,276
56.42,272
56.48,248
56.54,200
56.6,180
56.66,122
56.72,129
56.78,77
56.84,83
56.9,51
56.96,60
57.02,50
57.08,59
57.14,46
57.2,54
57.26,51
57.32,71
57.38,89
57.44,86
57.5,102
57.56,82
57.62,71
57.68,71
57.74,60
57.8,66
57.86,58
57.92,58
57.98,56
58.04,38
58.1,44
58.16,53
58.22,50
58.28,51
58.34,46
58.4,60
58.46,53
58.52,42
58.58,53
58.64,55
58.7,52
58.76,60
58.82,47
58.88,39
58.94,53
59,49
59.06,78
59.12,94
59.18,113
59.24,162
59.3,123
59.36,137
59.42,115
59.48,92
59.54,89
59.6,70
59.66,65
59.72,53
59.78,62
59.84,80
59.9,92
59.96,115
60.02,83
60.08,74
60.14,76
60.2,54
60.26,54
60.32,37
60.38,56
60.44,63
60.5,64
60.56,87
60.62,83
60.68,93
60.74,131
60.8,148
60.86,155
60.92,191
60.98,238
61.04,214
61.1,252
61.16,260
61.22,194
61.28,195
61.34,152
61.4,148
61.46,153
61.52,138
61.58,149
61.64,151
61.7,138
61.76,117
61.82,94
61.88,102
61.94,73
62,99
62.06,98
62.12,117
62.18,109
62.24,108
62.3,98
62.36,92
62.42,88
62.48,111
62.54,90
62.6,118
62.66,109
62.72,88
62.78,84
62.84,71
62.9,68
62.96,62
63.02,63
63.08,51
63.14,56
63.2,48
63.26,51
63.32,55
63.38,49
63.44,37
63.5,49
63.56,40
63.62,44
63.68,49
63.74,50
63.8,47
63.86,40
63.92,41
63.98,44
64.04,35
64.1,48
64.16,46
64.22,39
64.28,37
64.34,47
64.4,47
64.46,46
64.52,38
64.58,50
64.64,43
64.7,48
64.76,62
64.82,49
64.88,55
64.94,63
65,57
65.06,34
65.12,41
65.18,41
65.24,50
65.3,29
65.36,35
65.42,36
65.48,38
65.54,43
65.6,45
65.66,55
65.72,62
65.78,49
65.84,51
65.9,41
65.96,54
66.02,51
66.08,41
66.14,42
66.2,32
66.26,42
66.32,34
66.38,30
66.44,33
66.5,43
66.56,32
66.62,36
66.68,49
66.74,48
66.8,46
66.86,45
66.92,42
66.98,32
67.04,35
67.1,45
67.16,32
67.22,58
67.28,41
67.34,45
67.4,47
67.46,46
67.52,41
67.58,49
67.64,46
67.7,45
67.76,57
67.82,51
67.88,56
67.94,65
68,68
68.06,83
68.12,124
68.18,163
68.24,253
68.3,306
68.36,258
68.42,231
68.48,222
68.54,237
68.6,157
68.66,207
68.72,194
68.78,198
68.84,180
68.9,139
68.96,122
69.02,104
69.08,78
69.14,88
69.2,74
69.26,65
69.32,87
69.38,68
69.44,89
69.5,98
69.56,91
69.62,132
69.68,158
69.74,179
69.8,186
69.86,211
69.92,175
69.98,163
70.01,170
,