File: Fig S2/FigS2_C_XRD_ACBC_x42.csv
Bragg_angle,Intensity
\circ,a.u.
5,310
5.1,336
5.2,295
5.3,310
5.4,294
5.5,274
5.6,223
5.7,245
5.8,251
5.9,241
6,280
6.1,279
6.2,276
6.3,273
6.4,296
6.5,287
6.6,267
6.7,260
6.8,284
6.9,244
7,200
7.1,210
7.2,161
7.3,205
7.4,217
7.5,228
7.6,207
7.7,210
7.8,210
7.9,206
8,239
8.1,213
8.2,200
8.3,197
8.4,208
8.5,213
8.6,190
8.7,210
8.8,175
8.9,184
9,195
9.1,225
9.2,214
9.3,247
9.4,233
9.5,270
9.6,291
9.7,303
9.8,295
9.9,298
10,292
10.1,286
10.2,288
10.3,239
10.4,243
10.5,246
10.6,208
10.7,203
10.8,196
10.9,208
11,194
11.1,187
11.2,194
11.3,177
11.4,174
11.5,164
11.6,171
11.7,133
11.8,182
11.9,169
12,185
12.1,199
12.2,208
12.3,169
12.4,193
12.5,191
12.6,174
12.7,198
12.8,170
12.9,196
13,189
13.1,170
13.2,176
13.3,178
13.4,186
13.5,180
13.6,173
13.7,170
13.8,190
13.9,180
14,198
14.1,199
14.2,195
14.3,191
14.4,195
14.5,188
14.6,163
14.7,199
14.8,198
14.9,169
15,173
15.1,156
15.2,198
15.3,204
15.4,206
15.5,196
15.6,210
15.7,209
15.8,191
15.9,191
16,186
16.1,189
16.2,203
16.3,178
16.4,195
16.5,188
16.6,181
16.7,151
16.8,152
16.9,190
17,182
17.1,206
17.2,180
17.3,188
17.4,181
17.5,166
17.6,171
17.7,163
17.8,177
17.9,198
18,161
18.1,201
18.2,190
18.3,186
18.4,185
18.5,179
18.6,202
18.7,185
18.8,181
18.9,163
19,164
19.1,197
19.2,179
19.3,204
19.4,199
19.5,175
19.6,175
19.7,188
19.8,162
19.9,174
20,192
20.1,173
20.2,171
20.3,201
20.4,195
20.5,207
20.6,175
20.7,161
20.8,186
20.9,159
21,201
21.1,188
21.2,194
21.3,204
21.4,196
21.5,191
21.6,207
21.7,221
21.8,235
21.9,239
22,261
22.1,293
22.2,365
22.3,492
22.4,649
22.5,991
22.6,1277
22.7,1085
22.8,677
22.9,490
23,320
23.1,268
23.2,237
23.3,219
23.4,208
23.5,183
23.6,193
23.7,182
23.8,188
23.9,186
24,163
24.1,194
24.2,177
24.3,177
24.4,154
24.5,172
24.6,156
24.7,170
24.8,185
24.9,200
25,165
25.1,182
25.2,176
25.3,174
25.4,158
25.5,172
25.6,172
25.7,201
25.8,199
25.9,170
26,210
26.1,173
26.2,160
26.3,165
26.4,157
26.5,159
26.6,177
26.7,133
26.8,165
26.9,170
27,169
27.1,184
27.2,168
27.3,193
27.4,214
27.5,215
27.6,218
27.7,240
27.8,267
27.9,291
28,344
28.1,463
28.2,641
28.3,1037
28.4,1709
28.5,2571
28.6,2756
28.7,1965
28.8,1300
28.9,750
29,525
29.1,384
29.2,280
29.3,239
29.4,224
29.5,204
29.6,184
29.7,182
29.8,205
29.9,177
30,190
30.1,200
30.2,213
30.3,180
30.4,161
30.5,171
30.6,151
30.7,143
30.8,134
30.9,152
31,164
31.1,134
31.2,130
31.3,142
31.4,135
31.5,124
31.6,122
31.7,118
31.8,155
31.9,155
32,128
32.1,124
32.2,116
32.3,147
32.4,136
32.5,143
32.6,145
32.7,140
32.8,137
32.9,151
33,127
33.1,140
33.2,135
33.3,140
33.4,147
33.5,123
33.6,150
33.7,119
33.8,134
33.9,161
34,156
34.1,159
34.2,154
34.3,132
34.4,172
34.5,149
34.6,184
34.7,175
34.8,215
34.9,238
35,296
35.1,376
35.2,554
35.3,679
35.4,784
35.5,647
35.6,492
35.7,348
35.8,262
35.9,226
36,214
36.1,199
36.2,187
36.3,168
36.4,167
36.5,195
36.6,189
36.7,181
36.8,145
36.9,173
37,147
37.1,161
37.2,180
37.3,169
37.4,186
37.5,133
37.6,146
37.7,140
37.8,160
37.9,162
38,161
38.1,162
38.2,150
38.3,148
38.4,168
38.5,143
38.6,159
38.7,134
38.8,145
38.9,149
39,163
39.1,144
39.2,134
39.3,152
39.4,159
39.5,172
39.6,152
39.7,151
39.8,143
39.9,158
40,158
40.1,163
40.2,195
40.3,189
40.4,169
40.5,187
40.6,175
40.7,156
40.8,170
40.9,162
41,162
41.1,174
41.2,208
41.3,173
41.4,203
41.5,158
41.6,194
41.7,199
41.8,247
41.9,270
42,312
42.1,433
42.2,552
42.3,646
42.4,659
42.5,509
42.6,421
42.7,290
42.8,249
42.9,240
43,203
43.1,205
43.2,186
43.3,194
43.4,172
43.5,164
43.6,165
43.7,180
43.8,175
43.9,182
44,186
44.1,181
44.2,186
44.3,177
44.4,165
44.5,199
44.6,184
44.7,191
44.8,214
44.9,215
45,232
45.1,253
45.2,297
45.3,281
45.4,384
45.5,486
45.6,578
45.7,581
45.8,551
45.9,515
46,522
46.1,444
46.2,387
46.3,310
46.4,292
46.5,285
46.6,266
46.7,306
46.8,369
46.9,460
47,572
47.1,597
47.2,500
47.3,392
47.4,332
47.5,231
47.6,205
47.7,172
47.8,173
47.9,171
48,169
48.1,129
48.2,160
48.3,130
48.4,121
48.5,127
48.6,122
48.7,119
48.8,113
48.9,108
49,123
49.1,137
49.2,102
49.3,118
49.4,119
49.5,93
49.6,112
49.7,115
49.8,124
49.9,117
50,109
50.1,86
50.2,97
50.3,104
50.4,103
50.5,111
50.6,99
50.7,113
50.8,127
50.9,102
51,96
51.1,89
51.2,105
51.3,110
51.4,83
51.5,88
51.6,102
51.7,111
51.8,103
51.9,99
52,90
52.1,89
52.2,77
52.3,96
52.4,96
52.5,87
52.6,105
52.7,96
52.8,90
52.9,89
53,89
53.1,93
53.2,98
53.3,100
53.4,107
53.5,110
53.6,97
53.7,98
53.8,89
53.9,99
54,75
54.1,84
54.2,79
54.3,95
54.4,92
54.5,106
54.6,99
54.7,97
54.8,94
54.9,109
55,93
55.1,111
55.2,103
55.3,147
55.4,142
55.5,158
55.6,170
55.7,187
55.8,169
55.9,176
56,210
56.1,235
56.2,275
56.3,264
56.4,245
56.5,208
56.6,184
56.7,157
56.8,130
56.9,114
57,128
57.1,98
57.2,111
57.3,106
57.4,90
57.5,92
57.6,91
57.7,92
57.8,108
57.9,103
58,111
58.1,107
58.2,111
58.3,108
58.4,122
58.5,130
58.6,119
58.7,143
58.8,134
58.9,192
59,205
59.1,228
59.2,246
59.3,226
59.4,233
59.5,213
59.6,178
59.7,143
59.8,148
59.9,99
60,126
60.1,123
60.2,87
60.3,110
60.4,111
60.5,92
60.6,94
60.7,113
60.8,104
60.9,98
61,99
61.1,126
61.2,99
61.3,104
61.4,99
61.5,110
61.6,104
61.7,94
61.8,112
61.9,108
62,103
62.1,104
62.2,113
62.3,102
62.4,118
62.5,127
62.6,131
62.7,132
62.8,138
62.9,112
63,146
63.1,116
63.2,134
63.3,164
63.4,148
63.5,142
63.6,126
63.7,114
63.8,105
63.9,129
64,103
64.1,113
64.2,104
64.3,95
64.4,109
64.5,96
64.6,104
64.7,103
64.8,96
64.9,82
65,116
65.1,99
65.2,98
65.3,96
65.4,96
65.5,108
65.6,86
65.7,80
65.8,85
65.9,97
66,91
66.1,109
66.2,87
66.3,114
66.4,99
66.5,116
66.6,100
66.7,104
66.8,99
66.9,91
67,100
67.1,94
67.2,99
67.3,84
67.4,126
67.5,121
67.6,93
67.7,119
67.8,116
67.9,108
68,96
68.1,112
68.2,95
68.3,95
68.4,105
68.5,96
68.6,100
68.7,114
68.8,90
68.9,99
69,126
69.1,99
69.2,103
69.3,111
69.4,103
69.5,103
69.6,118
69.7,106
69.8,108
69.9,127
70,109
70.1,98
70.2,113
70.3,145
70.4,151
70.5,154
70.6,156
70.7,163
70.8,143
70.9,156
71,155
71.1,129
71.2,116
71.3,150
71.4,121
71.5,140
71.6,179
71.7,167
71.8,161
71.9,107
72,132
72.1,122
72.2,111
72.3,127
72.4,94
72.5,116
72.6,100
72.7,112
72.8,108
72.9,104
73,96
73.1,106
73.2,121
73.3,114
73.4,111
73.5,118
73.6,120
73.7,125
73.8,149
73.9,142
74,119
74.1,101
74.2,116
74.3,136
74.4,125
74.5,132
74.6,129
74.7,132
74.8,157
74.9,132
75,97
75.1,92
75.2,96
75.3,103
75.4,90
75.5,97
75.6,88
75.7,81
75.8,88
75.9,82
76,83
76.1,73
76.2,67
76.3,86
76.4,83
76.5,76
76.6,78
76.7,71
76.8,77
76.9,80
77,86
77.1,83
77.2,83
77.3,81
77.4,72
77.5,96
77.6,86
77.7,88
77.8,103
77.9,97
78,78
78.1,89
78.2,118
78.3,112
78.4,123
78.5,116
78.6,112
78.7,123
78.8,104
78.9,109
79,107
79.1,113
79.2,110
79.3,95
79.4,97
79.5,102
79.6,80
79.7,100
79.8,85
79.9,96
80,91