File: Fig S2/FigS2_A_XRD_mixture_x375.csv
Bragg_angle,Intensity
\circ,a.u.
5,258
5.06,286
5.12,276
5.18,277
5.24,307
5.3,267
5.36,280
5.42,264
5.48,257
5.54,250
5.6,244
5.66,224
5.72,229
5.78,221
5.84,223
5.9,222
5.96,201
6.02,202
6.08,222
6.14,210
6.2,195
6.26,227
6.32,232
6.38,227
6.44,226
6.5,199
6.56,208
6.62,218
6.68,226
6.74,176
6.8,214
6.86,188
6.92,195
6.98,191
7.04,164
7.1,180
7.16,199
7.22,197
7.28,168
7.34,198
7.4,203
7.46,198
7.52,176
7.58,218
7.64,182
7.7,202
7.76,210
7.82,202
7.88,186
7.94,210
8,196
8.06,199
8.12,168
8.18,174
8.24,184
8.3,186
8.36,193
8.42,181
8.48,167
8.54,185
8.6,167
8.66,188
8.72,194
8.78,190
8.84,196
8.9,219
8.96,218
9.02,238
9.08,265
9.14,240
9.2,248
9.26,268
9.32,268
9.38,286
9.44,307
9.5,294
9.56,342
9.62,311
9.68,307
9.74,287
9.8,324
9.86,319
9.92,318
9.98,297
10.04,280
10.1,300
10.16,301
10.22,301
10.28,264
10.34,241
10.4,247
10.46,220
10.52,211
10.58,180
10.64,183
10.7,174
10.76,165
10.82,153
10.88,147
10.94,153
11,150
11.06,135
11.12,161
11.18,128
11.24,137
11.3,109
11.36,135
11.42,150
11.48,132
11.54,139
11.6,155
11.66,149
11.72,136
11.78,137
11.84,131
11.9,152
11.96,165
12.02,138
12.08,148
12.14,136
12.2,140
12.26,129
12.32,140
12.38,140
12.44,124
12.5,140
12.56,168
12.62,126
12.68,144
12.74,165
12.8,134
12.86,130
12.92,151
12.98,144
13.04,127
13.1,148
13.16,127
13.22,136
13.28,161
13.34,126
13.4,119
13.46,143
13.52,148
13.58,131
13.64,130
13.7,143
13.76,133
13.82,141
13.88,118
13.94,138
14,116
14.06,143
14.12,117
14.18,127
14.24,135
14.3,138
14.36,116
14.42,128
14.48,116
14.54,110
14.6,134
14.66,120
14.72,131
14.78,136
14.84,144
14.9,120
14.96,142
15.02,146
15.08,145
15.14,127
15.2,114
15.26,122
15.32,130
15.38,125
15.44,137
15.5,122
15.56,101
15.62,124
15.68,100
15.74,141
15.8,123
15.86,109
15.92,117
15.98,112
16.04,112
16.1,112
16.16,98
16.22,87
16.28,118
16.34,110
16.4,101
16.46,100
16.52,108
16.58,98
16.64,87
16.7,111
16.76,104
16.82,91
16.88,100
16.94,105
17,101
17.06,95
17.12,105
17.18,96
17.24,101
17.3,107
17.36,101
17.42,117
17.48,92
17.54,91
17.6,98
17.66,94
17.72,96
17.78,94
17.84,84
17.9,90
17.96,105
18.02,76
18.08,67
18.14,83
18.2,94
18.26,78
18.32,95
18.38,97
18.44,90
18.5,110
18.56,107
18.62,91
18.68,103
18.74,92
18.8,99
18.86,91
18.92,92
18.98,99
19.04,106
19.1,103
19.16,125
19.22,107
19.28,146
19.34,172
19.4,267
19.46,393
19.52,562
19.58,396
19.64,263
19.7,236
19.76,223
19.82,218
19.88,210
19.94,228
20,197
20.06,153
20.12,115
20.18,113
20.24,104
20.3,87
20.36,97
20.42,86
20.48,110
20.54,88
20.6,71
20.66,90
20.72,89
20.78,82
20.84,107
20.9,101
20.96,89
21.02,80
21.08,72
21.14,80
21.2,71
21.26,85
21.32,84
21.38,90
21.44,77
21.5,90
21.56,110
21.62,118
21.68,122
21.74,102
21.8,108
21.86,88
21.92,100
21.98,97
22.04,93
22.1,79
22.16,86
22.22,83
22.28,77
22.34,62
22.4,82
22.46,78
22.52,82
22.58,69
22.64,85
22.7,92
22.76,86
22.82,88
22.88,84
22.94,87
23,104
23.06,176
23.12,254
23.18,199
23.24,143
23.3,131
23.36,120
23.42,133
23.48,145
23.54,174
23.6,203
23.66,299
23.72,417
23.78,671
23.84,1265
23.9,2462
23.96,4075
24.02,3818
24.08,2361
24.14,1648
24.2,1499
24.26,1577
24.32,1659
24.38,1477
24.44,822
24.5,426
24.56,260
24.62,183
24.68,174
24.74,127
24.8,148
24.86,117
24.92,91
24.98,111
25.04,97
25.1,118
25.16,103
25.22,89
25.28,99
25.34,98
25.4,84
25.46,102
25.52,94
25.58,91
25.64,87
25.7,77
25.76,89
25.82,73
25.88,79
25.94,90
26,94
26.06,81
26.12,80
26.18,80
26.24,73
26.3,95
26.36,77
26.42,90
26.48,77
26.54,82
26.6,95
26.66,67
26.72,93
26.78,74
26.84,90
26.9,88
26.96,82
27.02,75
27.08,73
27.14,85
27.2,72
27.26,87
27.32,66
27.38,63
27.44,69
27.5,85
27.56,97
27.62,134
27.68,193
27.74,417
27.8,644
27.86,478
27.92,184
27.98,95
28.04,83
28.1,84
28.16,74
28.22,72
28.28,52
28.34,63
28.4,74
28.46,77
28.52,84
28.58,94
28.64,88
28.7,70
28.76,68
28.82,79
28.88,78
28.94,72
29,82
29.06,91
29.12,93
29.18,121
29.24,174
29.3,262
29.36,530
29.42,1363
29.48,2200
29.54,1364
29.6,551
29.66,238
29.72,183
29.78,116
29.84,86
29.9,82
29.96,91
30.02,86
30.08,89
30.14,87
30.2,77
30.26,79
30.32,57
30.38,80
30.44,83
30.5,79
30.56,71
30.62,79
30.68,81
30.74,65
30.8,70
30.86,77
30.92,56
30.98,51
31.04,79
31.1,59
31.16,90
31.22,73
31.28,82
31.34,59
31.4,82
31.46,101
31.52,91
31.58,95
31.64,61
31.7,64
31.76,55
31.82,59
31.88,54
31.94,68
32,69
32.06,67
32.12,53
32.18,65
32.24,96
32.3,68
32.36,103
32.42,96
32.48,91
32.54,90
32.6,101
32.66,108
32.72,112
32.78,96
32.84,68
32.9,78
32.96,88
33.02,86
33.08,66
33.14,88
33.2,92
33.26,96
33.32,88
33.38,111
33.44,107
33.5,113
33.56,156
33.62,174
33.68,213
33.74,324
33.8,426
33.86,489
33.92,466
33.98,446
34.04,557
34.1,765
34.16,1081
34.22,958
34.28,785
34.34,676
34.4,728
34.46,735
34.52,787
34.58,904
34.64,1020
34.7,870
34.76,518
34.82,317
34.88,180
34.94,123
35,111
35.06,90
35.12,80
35.18,80
35.24,84
35.3,78
35.36,68
35.42,64
35.48,54
35.54,64
35.6,64
35.66,58
35.72,84
35.78,66
35.84,70
35.9,104
35.96,139
36.02,288
36.08,245
36.14,196
36.2,88
36.26,67
36.32,73
36.38,67
36.44,66
36.5,58
36.56,64
36.62,56
36.68,54
36.74,50
36.8,61
36.86,60
36.92,58
36.98,54
37.04,51
37.1,60
37.16,61
37.22,53
37.28,65
37.34,47
37.4,53
37.46,52
37.52,63
37.58,57
37.64,60
37.7,53
37.76,63
37.82,78
37.88,65
37.94,84
38,73
38.06,78
38.12,68
38.18,57
38.24,51
38.3,68
38.36,64
38.42,58
38.48,64
38.54,53
38.6,65
38.66,68
38.72,59
38.78,60
38.84,54
38.9,69
38.96,43
39.02,66
39.08,83
39.14,72
39.2,62
39.26,76
39.32,119
39.38,196
39.44,459
39.5,601
39.56,546
39.62,416
39.68,197
39.74,146
39.8,104
39.86,112
39.92,88
39.98,99
40.04,82
40.1,76
40.16,82
40.22,96
40.28,79
40.34,96
40.4,105
40.46,117
40.52,127
40.58,119
40.64,76
40.7,88
40.76,75
40.82,72
40.88,70
40.94,67
41,64
41.06,64
41.12,77
41.18,72
41.24,58
41.3,57
41.36,58
41.42,65
41.48,84
41.54,79
41.6,79
41.66,85
41.72,87
41.78,130
41.84,188
41.9,296
41.96,498
42.02,911
42.08,1069
42.14,951
42.2,747
42.26,449
42.32,308
42.38,234
42.44,192
42.5,213
42.56,197
42.62,174
42.68,197
42.74,188
42.8,212
42.86,280
42.92,343
42.98,424
43.04,396
43.1,381
43.16,450
43.22,593
43.28,394
43.34,312
43.4,158
43.46,96
43.52,84
43.58,77
43.64,77
43.7,85
43.76,79
43.82,79
43.88,92
43.94,103
44,101
44.06,113
44.12,139
44.18,211
44.24,275
44.3,331
44.36,313
44.42,349
44.48,280
44.54,262
44.6,268
44.66,261
44.72,326
44.78,375
44.84,557
44.9,698
44.96,792
45.02,616
45.08,450
45.14,237
45.2,150
45.26,115
45.32,108
45.38,93
45.44,65
45.5,69
45.56,61
45.62,78
45.68,68
45.74,63
45.8,73
45.86,58
45.92,53
45.98,66
46.04,62
46.1,65
46.16,64
46.22,72
46.28,69
46.34,64
46.4,68
46.46,68
46.52,69
46.58,102
46.64,120
46.7,146
46.76,292
46.82,501
46.88,726
46.94,578
47,628
47.06,507
47.12,417
47.18,401
47.24,230
47.3,179
47.36,117
47.42,112
47.48,201
47.54,502
47.6,378
47.66,275
47.72,227
47.78,94
47.84,72
47.9,47
47.96,62
48.02,67
48.08,69
48.14,56
48.2,81
48.26,70
48.32,75
48.38,76
48.44,111
48.5,238
48.56,480
48.62,289
48.68,292
48.74,185
48.8,75
48.86,105
48.92,132
48.98,157
49.04,149
49.1,147
49.16,102
49.22,94
49.28,76
49.34,56
49.4,52
49.46,74
49.52,74
49.58,70
49.64,65
49.7,74
49.76,99
49.82,97
49.88,101
49.94,80
50,73
50.06,62
50.12,61
50.18,46
50.24,51
50.3,55
50.36,51
50.42,56
50.48,63
50.54,49
50.6,42
50.66,46
50.72,43
50.78,47
50.84,45
50.9,40
50.96,47
51.02,45
51.08,30
51.14,37
51.2,41
51.26,52
51.32,52
51.38,43
51.44,42
51.5,42
51.56,43
51.62,51
51.68,52
51.74,39
51.8,43
51.86,45
51.92,41
51.98,41
52.04,44
52.1,42
52.16,58
52.22,45
52.28,45
52.34,39
52.4,47
52.46,45
52.52,55
52.58,60
52.64,64
52.7,80
52.76,83
52.82,80
52.88,80
52.94,72
53,76
53.06,65
53.12,63
53.18,61
53.24,71
53.3,60
53.36,84
53.42,67
53.48,66
53.54,75
53.6,86
53.66,88
53.72,108
53.78,87
53.84,105
53.9,84
53.96,78
54.02,60
54.08,94
54.14,76
54.2,79
54.26,82
54.32,91
54.38,85
54.44,106
54.5,101
54.56,99
54.62,122
54.68,144
54.74,179
54.8,220
54.86,181
54.92,214
54.98,184
55.04,155
55.1,122
55.16,110
55.22,120
55.28,122
55.34,113
55.4,128
55.46,128
55.52,131
55.58,149
55.64,200
55.7,267
55.76,277
55.82,234
55.88,211
55.94,199
56,173
56.06,159
56.12,154
56.18,194
56.24,179
56.3,196
56.36,218
56.42,193
56.48,169
56.54,133
56.6,145
56.66,128
56.72,83
56.78,79
56.84,78
56.9,62
56.96,52
57.02,49
57.08,55
57.14,56
57.2,73
57.26,77
57.32,115
57.38,120
57.44,273
57.5,236
57.56,135
57.62,154
57.68,88
57.74,46
57.8,57
57.86,54
57.92,55
57.98,49
58.04,61
58.1,67
58.16,84
58.22,53
58.28,70
58.34,59
58.4,63
58.46,50
58.52,61
58.58,47
58.64,45
58.7,60
58.76,59
58.82,50
58.88,51
58.94,62
59,82
59.06,72
59.12,137
59.18,144
59.24,122
59.3,131
59.36,116
59.42,84
59.48,71
59.54,53
59.6,69
59.66,64
59.72,64
59.78,70
59.84,82
59.9,83
59.96,75
60.02,79
60.08,63
60.14,57
60.2,52
60.26,57
60.32,55
60.38,64
60.44,63
60.5,98
60.56,97
60.62,121
60.68,159
60.74,182
60.8,157
60.86,223
60.92,242
60.98,228
61.04,250
61.1,274
61.16,222
61.22,219
61.28,188
61.34,181
61.4,202
61.46,198
61.52,141
61.58,159
61.64,125
61.7,103
61.76,89
61.82,84
61.88,79
61.94,97
62,100
62.06,107
62.12,105
62.18,94
62.24,69
62.3,82
62.36,71
62.42,80
62.48,67
62.54,73
62.6,87
62.66,79
62.72,83
62.78,72
62.84,56
62.9,44
62.96,54
63.02,67
63.08,82
63.14,78
63.2,59
63.26,53
63.32,45
63.38,44
63.44,35
63.5,37
63.56,46
63.62,47
63.68,32
63.74,50
63.8,23
63.86,42
63.92,37
63.98,43
64.04,44
64.1,38
64.16,43
64.22,44
64.28,43
64.34,36
64.4,39
64.46,37
64.52,37
64.58,48
64.64,72
64.7,164
64.76,128
64.82,59
64.88,95
64.94,95
65,48
65.06,47
65.12,33
65.18,38
65.24,43
65.3,34
65.36,37
65.42,31
65.48,33
65.54,57
65.6,83
65.66,156
65.72,75
65.78,64
65.84,83
65.9,69
65.96,39
66.02,31
66.08,41
66.14,34
66.2,46
66.26,45
66.32,46
66.38,47
66.44,37
66.5,30
66.56,31
66.62,40
66.68,32
66.74,31
66.8,37
66.86,37
66.92,40
66.98,29
67.04,40
67.1,42
67.16,41
67.22,38
67.28,43
67.34,50
67.4,44
67.46,36
67.52,47
67.58,34
67.64,45
67.7,40
67.76,41
67.82,46
67.88,63
67.94,69
68,108
68.06,115
68.12,169
68.18,216
68.24,257
68.3,232
68.36,205
68.42,203
68.48,182
68.54,181
68.6,198
68.66,214
68.72,190
68.78,181
68.84,153
68.9,141
68.96,107
69.02,87
69.08,76
69.14,75
69.2,84
69.26,87
69.32,92
69.38,91
69.44,97
69.5,82
69.56,135
69.62,152
69.68,157
69.74,170
69.8,191
69.86,177
69.92,153
69.98,128
70.01,148
,