File: Fig S2/FigS2_A_XRD_mixture_x125.csv
Bragg_angle,Intensity
\circ,a.u.
5,264
5.06,254
5.12,262
5.18,256
5.24,249
5.3,281
5.36,276
5.42,262
5.48,223
5.54,244
5.6,230
5.66,221
5.72,260
5.78,229
5.84,210
5.9,202
5.96,204
6.02,255
6.08,228
6.14,225
6.2,267
6.26,216
6.32,259
6.38,222
6.44,222
6.5,221
6.56,243
6.62,252
6.68,192
6.74,222
6.8,199
6.86,203
6.92,188
6.98,185
7.04,199
7.1,160
7.16,180
7.22,185
7.28,168
7.34,177
7.4,171
7.46,188
7.52,165
7.58,202
7.64,184
7.7,158
7.76,193
7.82,206
7.88,169
7.94,189
8,202
8.06,156
8.12,162
8.18,199
8.24,165
8.3,182
8.36,155
8.42,180
8.48,189
8.54,163
8.6,167
8.66,166
8.72,199
8.78,192
8.84,206
8.9,217
8.96,240
9.02,271
9.08,258
9.14,285
9.2,296
9.26,298
9.32,288
9.38,287
9.44,336
9.5,312
9.56,289
9.62,284
9.68,262
9.74,295
9.8,323
9.86,299
9.92,315
9.98,282
10.04,291
10.1,290
10.16,260
10.22,295
10.28,251
10.34,231
10.4,233
10.46,190
10.52,209
10.58,144
10.64,157
10.7,153
10.76,154
10.82,140
10.88,144
10.94,143
11,156
11.06,121
11.12,167
11.18,143
11.24,108
11.3,125
11.36,112
11.42,119
11.48,122
11.54,111
11.6,111
11.66,134
11.72,140
11.78,120
11.84,126
11.9,139
11.96,136
12.02,124
12.08,116
12.14,137
12.2,115
12.26,124
12.32,121
12.38,137
12.44,139
12.5,136
12.56,126
12.62,122
12.68,138
12.74,132
12.8,131
12.86,121
12.92,103
12.98,127
13.04,138
13.1,108
13.16,133
13.22,121
13.28,110
13.34,104
13.4,135
13.46,122
13.52,122
13.58,121
13.64,132
13.7,105
13.76,132
13.82,115
13.88,115
13.94,121
14,116
14.06,109
14.12,121
14.18,108
14.24,100
14.3,104
14.36,119
14.42,118
14.48,118
14.54,97
14.6,136
14.66,122
14.72,98
14.78,114
14.84,132
14.9,95
14.96,104
15.02,99
15.08,122
15.14,114
15.2,117
15.26,104
15.32,111
15.38,102
15.44,112
15.5,131
15.56,124
15.62,104
15.68,121
15.74,112
15.8,119
15.86,105
15.92,92
15.98,98
16.04,123
16.1,96
16.16,101
16.22,92
16.28,108
16.34,104
16.4,83
16.46,105
16.52,119
16.58,92
16.64,107
16.7,99
16.76,99
16.82,122
16.88,104
16.94,78
17,92
17.06,105
17.12,106
17.18,107
17.24,101
17.3,79
17.36,103
17.42,102
17.48,101
17.54,98
17.6,103
17.66,66
17.72,91
17.78,80
17.84,98
17.9,87
17.96,105
18.02,88
18.08,83
18.14,110
18.2,91
18.26,98
18.32,80
18.38,102
18.44,90
18.5,81
18.56,76
18.62,86
18.68,88
18.74,93
18.8,83
18.86,73
18.92,77
18.98,100
19.04,79
19.1,80
19.16,85
19.22,96
19.28,89
19.34,132
19.4,136
19.46,182
19.52,191
19.58,146
19.64,86
19.7,100
19.76,110
19.82,107
19.88,116
19.94,118
20,94
20.06,79
20.12,100
20.18,71
20.24,74
20.3,96
20.36,86
20.42,71
20.48,92
20.54,73
20.6,92
20.66,78
20.72,74
20.78,79
20.84,69
20.9,58
20.96,86
21.02,71
21.08,70
21.14,63
21.2,72
21.26,68
21.32,69
21.38,65
21.44,87
21.5,70
21.56,91
21.62,79
21.68,97
21.74,85
21.8,76
21.86,66
21.92,62
21.98,67
22.04,68
22.1,67
22.16,69
22.22,58
22.28,79
22.34,71
22.4,75
22.46,66
22.52,77
22.58,78
22.64,59
22.7,71
22.76,90
22.82,97
22.88,132
22.94,133
23,293
23.06,763
23.12,755
23.18,325
23.24,100
23.3,91
23.36,74
23.42,82
23.48,95
23.54,93
23.6,124
23.66,159
23.72,191
23.78,344
23.84,583
23.9,1124
23.96,1310
24.02,946
24.08,618
24.14,516
24.2,522
24.26,523
24.32,540
24.38,373
24.44,222
24.5,124
24.56,109
24.62,95
24.68,77
24.74,92
24.8,79
24.86,61
24.92,72
24.98,81
25.04,57
25.1,80
25.16,67
25.22,77
25.28,69
25.34,71
25.4,64
25.46,71
25.52,64
25.58,76
25.64,65
25.7,69
25.76,63
25.82,57
25.88,72
25.94,58
26,76
26.06,74
26.12,64
26.18,57
26.24,71
26.3,70
26.36,76
26.42,86
26.48,107
26.54,147
26.6,109
26.66,44
26.72,79
26.78,69
26.84,62
26.9,76
26.96,55
27.02,56
27.08,56
27.14,66
27.2,52
27.26,55
27.32,67
27.38,59
27.44,65
27.5,75
27.56,77
27.62,91
27.68,151
27.74,253
27.8,219
27.86,135
27.92,67
27.98,76
28.04,69
28.1,56
28.16,53
28.22,64
28.28,64
28.34,57
28.4,74
28.46,98
28.52,73
28.58,84
28.64,96
28.7,103
28.76,84
28.82,106
28.88,97
28.94,103
29,87
29.06,138
29.12,213
29.18,279
29.24,572
29.3,1228
29.36,3330
29.42,8644
29.48,7254
29.54,3046
29.6,510
29.66,271
29.72,151
29.78,111
29.84,95
29.9,95
29.96,93
30.02,85
30.08,80
30.14,89
30.2,77
30.26,65
30.32,59
30.38,56
30.44,77
30.5,70
30.56,74
30.62,82
30.68,80
30.74,87
30.8,78
30.86,75
30.92,69
30.98,78
31.04,63
31.1,67
31.16,81
31.22,83
31.28,84
31.34,90
31.4,158
31.46,245
31.52,177
31.58,109
31.64,78
31.7,76
31.76,68
31.82,67
31.88,49
31.94,63
32,56
32.06,49
32.12,64
32.18,89
32.24,56
32.3,55
32.36,65
32.42,101
32.48,62
32.54,80
32.6,69
32.66,74
32.72,76
32.78,63
32.84,57
32.9,61
32.96,65
33.02,55
33.08,47
33.14,82
33.2,70
33.26,53
33.32,62
33.38,77
33.44,63
33.5,77
33.56,89
33.62,120
33.68,109
33.74,154
33.8,160
33.86,150
33.92,154
33.98,165
34.04,212
34.1,409
34.16,361
34.22,357
34.28,291
34.34,270
34.4,239
34.46,255
34.52,290
34.58,308
34.64,305
34.7,211
34.76,137
34.82,100
34.88,68
34.94,74
35,63
35.06,52
35.12,60
35.18,61
35.24,51
35.3,50
35.36,68
35.42,55
35.48,76
35.54,63
35.6,48
35.66,56
35.72,70
35.78,92
35.84,147
35.9,233
35.96,836
36.02,999
36.08,613
36.14,311
36.2,85
36.26,60
36.32,59
36.38,53
36.44,53
36.5,53
36.56,49
36.62,47
36.68,51
36.74,59
36.8,39
36.86,49
36.92,50
36.98,48
37.04,49
37.1,44
37.16,42
37.22,48
37.28,59
37.34,45
37.4,54
37.46,51
37.52,56
37.58,46
37.64,44
37.7,52
37.76,51
37.82,47
37.88,57
37.94,60
38,53
38.06,52
38.12,79
38.18,51
38.24,49
38.3,42
38.36,51
38.42,32
38.48,47
38.54,47
38.6,58
38.66,53
38.72,50
38.78,55
38.84,50
38.9,60
38.96,43
39.02,55
39.08,54
39.14,63
39.2,89
39.26,128
39.32,202
39.38,733
39.44,1558
39.5,951
39.56,761
39.62,230
39.68,117
39.74,75
39.8,69
39.86,71
39.92,52
39.98,44
40.04,64
40.1,57
40.16,57
40.22,57
40.28,50
40.34,63
40.4,68
40.46,72
40.52,59
40.58,57
40.64,49
40.7,58
40.76,45
40.82,65
40.88,46
40.94,46
41,40
41.06,53
41.12,37
41.18,49
41.24,51
41.3,39
41.36,41
41.42,57
41.48,48
41.54,44
41.6,42
41.66,53
41.72,66
41.78,75
41.84,94
41.9,140
41.96,284
42.02,303
42.08,356
42.14,289
42.2,184
42.26,140
42.32,127
42.38,75
42.44,94
42.5,95
42.56,63
42.62,109
42.68,106
42.74,112
42.8,123
42.86,127
42.92,165
42.98,204
43.04,224
43.1,398
43.16,1188
43.22,1066
43.28,716
43.34,467
43.4,109
43.46,84
43.52,69
43.58,84
43.64,50
43.7,47
43.76,56
43.82,70
43.88,55
43.94,62
44,74
44.06,77
44.12,91
44.18,131
44.24,147
44.3,150
44.36,132
44.42,129
44.48,105
44.54,99
44.6,130
44.66,101
44.72,129
44.78,185
44.84,250
44.9,276
44.96,230
45.02,209
45.08,134
45.14,82
45.2,70
45.26,50
45.32,66
45.38,49
45.44,57
45.5,53
45.56,43
45.62,56
45.68,38
45.74,49
45.8,43
45.86,56
45.92,49
45.98,42
46.04,51
46.1,48
46.16,44
46.22,51
46.28,53
46.34,45
46.4,48
46.46,56
46.52,70
46.58,58
46.64,77
46.7,110
46.76,181
46.82,281
46.88,301
46.94,293
47,291
47.06,259
47.12,521
47.18,436
47.24,270
47.3,243
47.36,162
47.42,260
47.48,900
47.54,1476
47.6,754
47.66,758
47.72,269
47.78,89
47.84,72
47.9,48
47.96,51
48.02,53
48.08,58
48.14,72
48.2,59
48.26,86
48.32,103
48.38,164
48.44,386
48.5,1257
48.56,1125
48.62,731
48.68,690
48.74,181
48.8,87
48.86,89
48.92,97
48.98,92
49.04,74
49.1,74
49.16,66
49.22,59
49.28,48
49.34,45
49.4,59
49.46,49
49.52,48
49.58,36
49.64,58
49.7,57
49.76,76
49.82,62
49.88,50
49.94,50
50,53
50.06,48
50.12,49
50.18,50
50.24,42
50.3,44
50.36,43
50.42,51
50.48,50
50.54,41
50.6,48
50.66,44
50.72,37
50.78,43
50.84,42
50.9,44
50.96,35
51.02,40
51.08,40
51.14,37
51.2,32
51.26,30
51.32,37
51.38,43
51.44,45
51.5,40
51.56,29
51.62,37
51.68,38
51.74,42
51.8,33
51.86,41
51.92,29
51.98,32
52.04,42
52.1,46
52.16,41
52.22,34
52.28,32
52.34,48
52.4,38
52.46,36
52.52,43
52.58,37
52.64,39
52.7,43
52.76,47
52.82,38
52.88,50
52.94,30
53,54
53.06,51
53.12,45
53.18,45
53.24,37
53.3,33
53.36,38
53.42,45
53.48,50
53.54,52
53.6,49
53.66,46
53.72,43
53.78,51
53.84,60
53.9,57
53.96,41
54.02,43
54.08,40
54.14,45
54.2,45
54.26,47
54.32,65
54.38,58
54.44,46
54.5,59
54.56,68
54.62,48
54.68,84
54.74,77
54.8,100
54.86,89
54.92,79
54.98,52
55.04,61
55.1,77
55.16,64
55.22,59
55.28,58
55.34,54
55.4,58
55.46,56
55.52,67
55.58,86
55.64,91
55.7,110
55.76,110
55.82,110
55.88,99
55.94,72
56,66
56.06,69
56.12,62
56.18,75
56.24,85
56.3,92
56.36,91
56.42,100
56.48,104
56.54,206
56.6,319
56.66,153
56.72,176
56.78,133
56.84,57
56.9,40
56.96,44
57.02,35
57.08,46
57.14,58
57.2,68
57.26,90
57.32,175
57.38,485
57.44,657
57.5,271
57.56,327
57.62,244
57.68,85
57.74,53
57.8,36
57.86,53
57.92,38
57.98,41
58.04,48
58.1,88
58.16,71
58.22,62
58.28,60
58.34,45
58.4,41
58.46,37
58.52,41
58.58,27
58.64,32
58.7,33
58.76,38
58.82,32
58.88,45
58.94,40
59,44
59.06,61
59.12,75
59.18,58
59.24,52
59.3,58
59.36,44
59.42,47
59.48,39
59.54,53
59.6,47
59.66,39
59.72,43
59.78,41
59.84,56
59.9,52
59.96,41
60.02,40
60.08,39
60.14,35
60.2,39
60.26,44
60.32,38
60.38,44
60.44,49
60.5,66
60.56,82
60.62,180
60.68,515
60.74,297
60.8,200
60.86,297
60.92,222
60.98,197
61.04,288
61.1,177
61.16,182
61.22,155
61.28,104
61.34,163
61.4,235
61.46,128
61.52,125
61.58,117
61.64,66
61.7,57
61.76,46
61.82,38
61.88,42
61.94,42
62,45
62.06,36
62.12,56
62.18,43
62.24,62
62.3,40
62.36,40
62.42,43
62.48,44
62.54,49
62.6,43
62.66,44
62.72,29
62.78,38
62.84,41
62.9,44
62.96,56
63.02,120
63.08,144
63.14,91
63.2,94
63.26,99
63.32,50
63.38,43
63.44,25
63.5,24
63.56,39
63.62,30
63.68,35
63.74,24
63.8,24
63.86,30
63.92,39
63.98,29
64.04,30
64.1,34
64.16,30
64.22,31
64.28,29
64.34,40
64.4,30
64.46,41
64.52,60
64.58,94
64.64,313
64.7,394
64.76,177
64.82,184
64.88,213
64.94,89
65,46
65.06,33
65.12,51
65.18,31
65.24,32
65.3,36
65.36,31
65.42,34
65.48,57
65.54,88
65.6,211
65.66,167
65.72,89
65.78,139
65.84,94
65.9,43
65.96,34
66.02,33
66.08,31
66.14,33
66.2,23
66.26,29
66.32,37
66.38,32
66.44,29
66.5,28
66.56,32
66.62,34
66.68,24
66.74,35
66.8,22
66.86,21
66.92,28
66.98,28
67.04,29
67.1,28
67.16,30
67.22,37
67.28,32
67.34,31
67.4,27
67.46,24
67.52,26
67.58,37
67.64,41
67.7,28
67.76,32
67.82,39
67.88,37
67.94,39
68,41
68.06,86
68.12,95
68.18,93
68.24,95
68.3,91
68.36,73
68.42,88
68.48,75
68.54,94
68.6,80
68.66,97
68.72,86
68.78,74
68.84,76
68.9,59
68.96,62
69.02,42
69.08,38
69.14,87
69.2,126
69.26,85
69.32,68
69.38,93
69.44,81
69.5,68
69.56,78
69.62,64
69.68,87
69.74,67
69.8,76
69.86,81
69.92,86
69.98,57
70.01,67
,