File: Fig S2/FigS2_XRD_witherite_ref.csv
Bragg_angle,Intensity
\circ,a.u.
5,566
5.1,641
5.2,629
5.3,625
5.4,567
5.5,526
5.6,554
5.7,550
5.8,513
5.9,503
6,486
6.1,496
6.2,526
6.3,469
6.4,494
6.5,491
6.6,512
6.7,498
6.8,469
6.9,480
7,481
7.1,526
7.2,544
7.3,520
7.4,538
7.5,515
7.6,529
7.7,500
7.8,512
7.9,495
8,499
8.1,517
8.2,497
8.3,473
8.4,499
8.5,503
8.6,523
8.7,510
8.8,478
8.9,527
9,535
9.1,554
9.2,526
9.3,536
9.4,530
9.5,585
9.6,558
9.7,533
9.8,552
9.9,520
10,555
10.1,543
10.2,557
10.3,510
10.4,563
10.5,527
10.6,510
10.7,493
10.8,504
10.9,554
11,512
11.1,511
11.2,540
11.3,472
11.4,507
11.5,511
11.6,501
11.7,524
11.8,482
11.9,523
12,516
12.1,515
12.2,477
12.3,508
12.4,535
12.5,506
12.6,490
12.7,528
12.8,465
12.9,485
13,453
13.1,480
13.2,463
13.3,468
13.4,432
13.5,447
13.6,457
13.7,519
13.8,433
13.9,443
14,432
14.1,493
14.2,423
14.3,460
14.4,442
14.5,440
14.6,428
14.7,416
14.8,417
14.9,418
15,434
15.1,438
15.2,450
15.3,373
15.4,419
15.5,374
15.6,410
15.7,389
15.8,413
15.9,397
16,399
16.1,336
16.2,380
16.3,367
16.4,377
16.5,368
16.6,354
16.7,374
16.8,403
16.9,388
17,385
17.1,375
17.2,392
17.3,355
17.4,363
17.5,414
17.6,344
17.7,362
17.8,380
17.9,330
18,330
18.1,330
18.2,383
18.3,370
18.4,337
18.5,362
18.6,372
18.7,349
18.8,388
18.9,346
19,379
19.1,380
19.2,424
19.3,564
19.4,1224
19.5,811
19.6,442
19.7,427
19.8,509
19.9,807
20,610
20.1,366
20.2,329
20.3,376
20.4,330
20.5,350
20.6,321
20.7,337
20.8,322
20.9,285
21,299
21.1,312
21.2,295
21.3,333
21.4,378
21.5,386
21.6,405
21.7,328
21.8,304
21.9,379
22,346
22.1,314
22.2,322
22.3,286
22.4,287
22.5,276
22.6,325
22.7,358
22.8,341
22.9,321
23,336
23.1,330
23.2,347
23.3,363
23.4,410
23.5,499
23.6,681
23.7,1493
23.8,3785
23.9,6936
24,2440
24.1,1468
24.2,2756
24.3,4730
24.4,1497
24.5,498
24.6,433
24.7,381
24.8,370
24.9,387
25,356
25.1,340
25.2,320
25.3,283
25.4,304
25.5,286
25.6,296
25.7,361
25.8,353
25.9,319
26,325
26.1,317
26.2,296
26.3,303
26.4,267
26.5,292
26.6,332
26.7,331
26.8,338
26.9,302
27,279
27.1,281
27.2,309
27.3,279
27.4,314
27.5,381
27.6,794
27.7,1900
27.8,1122
27.9,400
28,348
28.1,290
28.2,283
28.3,348
28.4,488
28.5,425
28.6,369
28.7,348
28.8,293
28.9,251
29,276
29.1,279
29.2,269
29.3,319
29.4,521
29.5,1067
29.6,675
29.7,339
29.8,297
29.9,257
30,242
30.1,241
30.2,240
30.3,258
30.4,233
30.5,263
30.6,252
30.7,274
30.8,231
30.9,245
31,245
31.1,227
31.2,250
31.3,228
31.4,232
31.5,254
31.6,286
31.7,257
31.8,220
31.9,215
32,215
32.1,218
32.2,251
32.3,271
32.4,334
32.5,471
32.6,363
32.7,287
32.8,284
32.9,266
33,272
33.1,243
33.2,271
33.3,294
33.4,260
33.5,312
33.6,474
33.7,868
33.8,707
33.9,627
34,1466
34.1,2399
34.2,1294
34.3,1638
34.4,2284
34.5,1654
34.6,1921
34.7,1055
34.8,364
34.9,299
35,241
35.1,232
35.2,209
35.3,206
35.4,227
35.5,226
35.6,218
35.7,193
35.8,215
35.9,174
36,179
36.1,229
36.2,199
36.3,206
36.4,193
36.5,209
36.6,204
36.7,210
36.8,183
36.9,177
37,201
37.1,178
37.2,213
37.3,188
37.4,220
37.5,197
37.6,191
37.7,183
37.8,225
37.9,216
38,204
38.1,205
38.2,194
38.3,197
38.4,202
38.5,187
38.6,226
38.7,220
38.8,203
38.9,204
39,207
39.1,208
39.2,239
39.3,237
39.4,536
39.5,713
39.6,466
39.7,252
39.8,215
39.9,224
40,221
40.1,193
40.2,203
40.3,224
40.4,257
40.5,416
40.6,364
40.7,273
40.8,237
40.9,192
41,206
41.1,184
41.2,185
41.3,177
41.4,191
41.5,195
41.6,213
41.7,249
41.8,369
41.9,777
42,1501
42.1,1010
42.2,476
42.3,337
42.4,257
42.5,261
42.6,287
42.7,327
42.8,327
42.9,634
43,1299
43.1,772
43.2,340
43.3,251
43.4,196
43.5,208
43.6,194
43.7,209
43.8,201
43.9,285
44,333
44.1,633
44.2,1121
44.3,816
44.4,376
44.5,291
44.6,303
44.7,401
44.8,861
44.9,1822
45,1240
45.1,545
45.2,275
45.3,252
45.4,202
45.5,184
45.6,189
45.7,173
45.8,169
45.9,186
46,185
46.1,192
46.2,200
46.3,220
46.4,195
46.5,300
46.6,387
46.7,836
46.8,1738
46.9,1405
47,1386
47.1,900
47.2,517
47.3,243
47.4,200
47.5,187
47.6,177
47.7,186
47.8,167
47.9,187
48,186
48.1,187
48.2,169
48.3,194
48.4,166
48.5,178
48.6,184
48.7,166
48.8,199
48.9,349
49,308
49.1,239
49.2,187
49.3,192
49.4,166
49.5,147
49.6,200
49.7,256
49.8,296
49.9,269
50,205
50.1,164
50.2,191
50.3,156
50.4,169
50.5,148
50.6,142
50.7,161
50.8,157
50.9,149
51,154
51.1,135
51.2,132
51.3,153
51.4,153
51.5,144
51.6,148
51.7,141
51.8,130
51.9,151
52,138
52.1,173
52.2,148
52.3,130
52.4,137
52.5,165
52.6,202
52.7,212
52.8,188
52.9,182
53,144
53.1,171
53.2,141
53.3,182
53.4,162
53.5,188
53.6,170
53.7,232
53.8,197
53.9,166
54,134
54.1,125
54.2,161
54.3,236
54.4,226
54.5,212
54.6,322
54.7,541
54.8,411
54.9,351
55,187
55.1,178
55.2,171
55.3,179
55.4,160
55.5,204
55.6,305
55.7,538
55.8,437
55.9,392
56,206
56.1,229
56.2,306
56.3,487
56.4,406
56.5,297
56.6,181
56.7,174
56.8,149
56.9,140
57,146
57.1,156
57.2,238
57.3,280
57.4,236
57.5,176
57.6,146
57.7,143
57.8,178
57.9,151
58,147
58.1,161
58.2,160
58.3,204
58.4,174
58.5,151
58.6,150
58.7,135
58.8,127
58.9,140
59,201
59.1,427
59.2,322
59.3,260
59.4,187
59.5,161
59.6,126
59.7,178
59.8,245
59.9,277
60,244
60.1,197
60.2,167
60.3,169
60.4,181
60.5,216
60.6,293
60.7,293
60.8,370
60.9,378
61,418
61.1,578
61.2,591
61.3,797
61.4,424
61.5,400
61.6,229
61.7,218
61.8,168
61.9,161
62,200
62.1,307
62.2,248
62.3,224
62.4,158
62.5,191
62.6,278
62.7,241
62.8,220
62.9,156
63,139
63.1,137
63.2,131
63.3,119
63.4,117
63.5,136
63.6,116
63.7,115
63.8,111
63.9,124
64,122
64.1,128
64.2,129
64.3,127
64.4,150
64.5,113
64.6,127
64.7,118
64.8,122
64.9,127
65,111
65.1,124
65.2,84
65.3,153
65.4,132
65.5,109
65.6,127
65.7,117
65.8,115
65.9,118
66,117
66.1,119
66.2,124
66.3,119
66.4,120
66.5,124
66.6,130
66.7,130
66.8,105
66.9,121
67,114
67.1,134
67.2,138
67.3,136
67.4,127
67.5,125
67.6,129
67.7,142
67.8,146
67.9,177
68,208
68.1,404
68.2,556
68.3,429
68.4,350
68.5,270
68.6,414
68.7,576
68.8,364
68.9,409
69,213
69.1,165
69.2,164
69.3,167
69.4,166
69.5,224
69.6,346
69.7,313
69.8,342
69.9,276
70,258
70.1,168
70.2,160
70.3,163
70.4,233
70.5,474
70.6,399
70.7,373
70.8,333
70.9,378
71,434
71.1,399
71.2,301
71.3,273
71.4,179
71.5,145
71.6,145
71.7,140
71.8,181
71.9,162
72,152
72.1,150
72.2,114
72.3,149
72.4,165
72.5,188
72.6,166
72.7,154
72.8,153
72.9,176
73,301
73.1,233
73.2,215
73.3,173
73.4,143
73.5,132
73.6,131
73.7,119
73.8,125
73.9,106
74,110
74.1,97
74.2,92
74.3,119
74.4,128
74.5,128
74.6,106
74.7,99
74.8,144
74.9,120
75,104
75.1,106
75.2,106
75.3,105
75.4,127
75.5,116
75.6,115
75.7,118
75.8,133
75.9,122
76,140
76.1,166
76.2,241
76.3,192
76.4,175
76.5,203
76.6,174
76.7,182
76.8,167
76.9,230
77,349
77.1,295
77.2,313
77.3,298
77.4,343
77.5,265
77.6,240
77.7,245
77.8,182
77.9,151
78,148
78.1,139
78.2,143
78.3,128
78.4,118
78.5,142
78.6,158
78.7,198
78.8,305
78.9,238
79,214
79.1,175
79.2,127
79.3,115
79.4,109
79.5,127
79.6,133
79.7,165
79.8,246
79.9,220
80,195
80.1,194
80.2,125
80.3,119
80.4,114
80.5,114
80.6,125
80.7,104
80.8,115
80.9,105
81,117
81.1,132
81.2,147
81.3,161
81.4,152
81.5,216
81.6,223
81.7,169
81.8,176
81.9,165
82,129
82.1,114
82.2,126
82.3,137
82.4,178
82.5,197
82.6,171
82.7,152
82.8,142
82.9,206
83,146
83.1,141
83.2,144
83.3,118
83.4,110
83.5,118
83.6,123
83.7,140
83.8,185
83.9,124
84,131
84.1,129
84.2,97
84.3,107
84.4,108
84.5,90
84.6,104
84.7,131
84.8,105
84.9,112
85,128
85.1,110
85.2,128
85.3,118
85.4,98
85.5,109
85.6,111
85.7,109
85.8,112
85.9,114
86,118
86.1,126
86.2,105
86.3,109
86.4,113
86.5,150
86.6,227
86.7,335
86.8,272
86.9,387
87,348
87.1,234
87.2,236
87.3,190
87.4,154
87.5,173
87.6,235
87.7,171
87.8,146
87.9,147
88,144
88.1,133
88.2,131
88.3,153
88.4,322
88.5,904
88.6,263
88.7,286
88.8,440
88.9,164
89,129
89.1,135
89.2,133
89.3,155
89.4,182
89.5,179
89.6,217
89.7,157
89.8,178
89.9,186
90,171