File: Fig S2/FigS2_A_XRD_mixture_x0625.csv
Bragg_angle,Intensity
\circ,a.u.
5,241
5.06,240
5.12,253
5.18,232
5.24,235
5.3,205
5.36,202
5.42,228
5.48,242
5.54,238
5.6,242
5.66,215
5.72,207
5.78,218
5.84,219
5.9,235
5.96,205
6.02,226
6.08,222
6.14,236
6.2,249
6.26,256
6.32,223
6.38,250
6.44,260
6.5,219
6.56,275
6.62,248
6.68,201
6.74,222
6.8,217
6.86,232
6.92,223
6.98,190
7.04,181
7.1,178
7.16,188
7.22,189
7.28,179
7.34,172
7.4,182
7.46,185
7.52,177
7.58,186
7.64,163
7.7,218
7.76,188
7.82,180
7.88,193
7.94,195
8,217
8.06,204
8.12,186
8.18,194
8.24,200
8.3,178
8.36,169
8.42,201
8.48,228
8.54,188
8.6,219
8.66,212
8.72,204
8.78,236
8.84,266
8.9,268
8.96,286
9.02,280
9.08,308
9.14,306
9.2,346
9.26,332
9.32,341
9.38,351
9.44,363
9.5,372
9.56,369
9.62,352
9.68,398
9.74,361
9.8,379
9.86,357
9.92,372
9.98,360
10.04,374
10.1,323
10.16,333
10.22,323
10.28,303
10.34,271
10.4,249
10.46,252
10.52,239
10.58,170
10.64,171
10.7,163
10.76,175
10.82,166
10.88,162
10.94,153
11,173
11.06,160
11.12,143
11.18,138
11.24,191
11.3,149
11.36,130
11.42,143
11.48,124
11.54,125
11.6,129
11.66,132
11.72,136
11.78,139
11.84,150
11.9,133
11.96,143
12.02,124
12.08,148
12.14,147
12.2,148
12.26,145
12.32,126
12.38,140
12.44,136
12.5,127
12.56,140
12.62,166
12.68,133
12.74,112
12.8,149
12.86,130
12.92,146
12.98,137
13.04,122
13.1,125
13.16,115
13.22,111
13.28,118
13.34,131
13.4,132
13.46,121
13.52,117
13.58,124
13.64,136
13.7,144
13.76,129
13.82,136
13.88,143
13.94,130
14,131
14.06,130
14.12,126
14.18,128
14.24,119
14.3,148
14.36,123
14.42,130
14.48,122
14.54,122
14.6,116
14.66,121
14.72,133
14.78,134
14.84,136
14.9,111
14.96,118
15.02,128
15.08,131
15.14,104
15.2,104
15.26,133
15.32,105
15.38,122
15.44,118
15.5,121
15.56,105
15.62,128
15.68,123
15.74,118
15.8,95
15.86,120
15.92,134
15.98,118
16.04,111
16.1,107
16.16,121
16.22,118
16.28,134
16.34,117
16.4,114
16.46,93
16.52,111
16.58,97
16.64,122
16.7,103
16.76,110
16.82,124
16.88,109
16.94,108
17,104
17.06,103
17.12,109
17.18,97
17.24,101
17.3,97
17.36,119
17.42,92
17.48,91
17.54,92
17.6,104
17.66,88
17.72,82
17.78,97
17.84,101
17.9,94
17.96,92
18.02,107
18.08,96
18.14,98
18.2,82
18.26,88
18.32,97
18.38,94
18.44,88
18.5,89
18.56,88
18.62,79
18.68,88
18.74,81
18.8,79
18.86,78
18.92,99
18.98,105
19.04,80
19.1,83
19.16,81
19.22,69
19.28,85
19.34,89
19.4,102
19.46,115
19.52,132
19.58,124
19.64,110
19.7,102
19.76,100
19.82,109
19.88,99
19.94,92
20,85
20.06,92
20.12,82
20.18,77
20.24,88
20.3,77
20.36,87
20.42,71
20.48,78
20.54,80
20.6,75
20.66,70
20.72,58
20.78,83
20.84,93
20.9,70
20.96,82
21.02,68
21.08,65
21.14,75
21.2,104
21.26,70
21.32,85
21.38,75
21.44,77
21.5,86
21.56,69
21.62,77
21.68,66
21.74,70
21.8,64
21.86,71
21.92,70
21.98,74
22.04,70
22.1,60
22.16,72
22.22,57
22.28,70
22.34,53
22.4,64
22.46,81
22.52,74
22.58,68
22.64,70
22.7,89
22.76,75
22.82,83
22.88,108
22.94,157
23,276
23.06,580
23.12,888
23.18,523
23.24,141
23.3,85
23.36,70
23.42,80
23.48,87
23.54,80
23.6,101
23.66,96
23.72,122
23.78,175
23.84,286
23.9,484
23.96,812
24.02,659
24.08,423
24.14,317
24.2,310
24.26,277
24.32,342
24.38,280
24.44,182
24.5,143
24.56,86
24.62,84
24.68,75
24.74,68
24.8,72
24.86,59
24.92,71
24.98,73
25.04,73
25.1,70
25.16,68
25.22,65
25.28,65
25.34,74
25.4,71
25.46,69
25.52,79
25.58,67
25.64,59
25.7,65
25.76,49
25.82,61
25.88,70
25.94,72
26,69
26.06,56
26.12,60
26.18,65
26.24,60
26.3,72
26.36,71
26.42,80
26.48,92
26.54,145
26.6,134
26.66,85
26.72,71
26.78,51
26.84,61
26.9,61
26.96,64
27.02,60
27.08,81
27.14,68
27.2,53
27.26,63
27.32,69
27.38,70
27.44,53
27.5,66
27.56,63
27.62,81
27.68,102
27.74,128
27.8,158
27.86,118
27.92,82
27.98,71
28.04,54
28.1,60
28.16,68
28.22,61
28.28,73
28.34,68
28.4,72
28.46,94
28.52,110
28.58,98
28.64,82
28.7,91
28.76,92
28.82,100
28.88,103
28.94,96
29,119
29.06,116
29.12,141
29.18,232
29.24,536
29.3,995
29.36,2329
29.42,7858
29.48,10326
29.54,4985
29.6,1136
29.66,349
29.72,187
29.78,143
29.84,109
29.9,94
29.96,86
30.02,91
30.08,94
30.14,100
30.2,74
30.26,87
30.32,69
30.38,85
30.44,91
30.5,82
30.56,81
30.62,82
30.68,79
30.74,68
30.8,72
30.86,60
30.92,89
30.98,71
31.04,65
31.1,68
31.16,71
31.22,84
31.28,77
31.34,93
31.4,122
31.46,268
31.52,306
31.58,193
31.64,82
31.7,82
31.76,72
31.82,68
31.88,68
31.94,74
32,72
32.06,69
32.12,63
32.18,68
32.24,62
32.3,62
32.36,65
32.42,73
32.48,80
32.54,77
32.6,77
32.66,61
32.72,84
32.78,63
32.84,73
32.9,69
32.96,70
33.02,61
33.08,65
33.14,51
33.2,69
33.26,57
33.32,61
33.38,51
33.44,71
33.5,69
33.56,64
33.62,69
33.68,84
33.74,89
33.8,101
33.86,106
33.92,114
33.98,114
34.04,111
34.1,207
34.16,254
34.22,210
34.28,192
34.34,146
34.4,199
34.46,155
34.52,184
34.58,185
34.64,186
34.7,154
34.76,123
34.82,62
34.88,59
34.94,45
35,46
35.06,57
35.12,63
35.18,49
35.24,46
35.3,49
35.36,45
35.42,62
35.48,64
35.54,66
35.6,66
35.66,58
35.72,66
35.78,75
35.84,113
35.9,202
35.96,495
36.02,1150
36.08,766
36.14,532
36.2,101
36.26,77
36.32,56
36.38,47
36.44,43
36.5,51
36.56,57
36.62,46
36.68,47
36.74,52
36.8,37
36.86,50
36.92,53
36.98,46
37.04,56
37.1,35
37.16,41
37.22,47
37.28,48
37.34,49
37.4,53
37.46,46
37.52,49
37.58,47
37.64,48
37.7,47
37.76,50
37.82,49
37.88,47
37.94,58
38,45
38.06,55
38.12,39
38.18,48
38.24,49
38.3,55
38.36,49
38.42,51
38.48,59
38.54,43
38.6,54
38.66,47
38.72,54
38.78,56
38.84,57
38.9,71
38.96,48
39.02,46
39.08,53
39.14,53
39.2,83
39.26,118
39.32,220
39.38,523
39.44,1733
39.5,1541
39.56,976
39.62,462
39.68,124
39.74,88
39.8,61
39.86,67
39.92,52
39.98,61
40.04,54
40.1,47
40.16,44
40.22,43
40.28,57
40.34,39
40.4,46
40.46,74
40.52,63
40.58,49
40.64,49
40.7,50
40.76,40
40.82,37
40.88,44
40.94,45
41,44
41.06,42
41.12,40
41.18,41
41.24,59
41.3,41
41.36,47
41.42,47
41.48,54
41.54,54
41.6,44
41.66,58
41.72,51
41.78,62
41.84,83
41.9,105
41.96,133
42.02,197
42.08,209
42.14,186
42.2,156
42.26,107
42.32,94
42.38,90
42.44,94
42.5,68
42.56,57
42.62,72
42.68,86
42.74,98
42.8,93
42.86,113
42.92,110
42.98,137
43.04,186
43.1,261
43.16,909
43.22,1604
43.28,808
43.34,765
43.4,206
43.46,89
43.52,75
43.58,65
43.64,66
43.7,64
43.76,62
43.82,50
43.88,66
43.94,38
44,69
44.06,57
44.12,63
44.18,80
44.24,107
44.3,85
44.36,101
44.42,74
44.48,88
44.54,95
44.6,73
44.66,79
44.72,79
44.78,101
44.84,121
44.9,172
44.96,162
45.02,131
45.08,102
45.14,81
45.2,58
45.26,59
45.32,46
45.38,54
45.44,40
45.5,57
45.56,38
45.62,40
45.68,40
45.74,52
45.8,51
45.86,57
45.92,58
45.98,52
46.04,55
46.1,62
46.16,53
46.22,44
46.28,41
46.34,54
46.4,56
46.46,65
46.52,55
46.58,53
46.64,61
46.7,66
46.76,114
46.82,179
46.88,203
46.94,191
47,184
47.06,225
47.12,471
47.18,592
47.24,332
47.3,339
47.36,210
47.42,266
47.48,790
47.54,2052
47.6,1370
47.66,1089
47.72,764
47.78,173
47.84,93
47.9,80
47.96,57
48.02,61
48.08,71
48.14,49
48.2,65
48.26,66
48.32,121
48.38,152
48.44,296
48.5,1137
48.56,1866
48.62,922
48.68,1021
48.74,465
48.8,146
48.86,98
48.92,81
48.98,102
49.04,72
49.1,57
49.16,70
49.22,60
49.28,49
49.34,58
49.4,59
49.46,48
49.52,38
49.58,48
49.64,54
49.7,42
49.76,44
49.82,49
49.88,51
49.94,40
50,47
50.06,43
50.12,41
50.18,50
50.24,44
50.3,40
50.36,46
50.42,51
50.48,52
50.54,32
50.6,45
50.66,39
50.72,55
50.78,59
50.84,42
50.9,41
50.96,41
51.02,40
51.08,40
51.14,37
51.2,57
51.26,36
51.32,26
51.38,43
51.44,48
51.5,46
51.56,38
51.62,34
51.68,42
51.74,39
51.8,41
51.86,44
51.92,43
51.98,39
52.04,33
52.1,32
52.16,48
52.22,44
52.28,40
52.34,25
52.4,43
52.46,39
52.52,40
52.58,36
52.64,44
52.7,43
52.76,40
52.82,44
52.88,32
52.94,48
53,54
53.06,55
53.12,40
53.18,41
53.24,45
53.3,48
53.36,29
53.42,33
53.48,25
53.54,42
53.6,40
53.66,43
53.72,42
53.78,36
53.84,39
53.9,37
53.96,31
54.02,26
54.08,46
54.14,46
54.2,28
54.26,38
54.32,54
54.38,46
54.44,48
54.5,38
54.56,50
54.62,47
54.68,47
54.74,66
54.8,47
54.86,51
54.92,76
54.98,52
55.04,38
55.1,47
55.16,38
55.22,36
55.28,46
55.34,55
55.4,54
55.46,39
55.52,49
55.58,51
55.64,56
55.7,61
55.76,65
55.82,72
55.88,61
55.94,42
56,59
56.06,66
56.12,49
56.18,67
56.24,54
56.3,59
56.36,99
56.42,80
56.48,73
56.54,156
56.6,341
56.66,211
56.72,160
56.78,150
56.84,64
56.9,39
56.96,43
57.02,41
57.08,40
57.14,53
57.2,67
57.26,63
57.32,110
57.38,395
57.44,785
57.5,445
57.56,354
57.62,400
57.68,133
57.74,63
57.8,42
57.86,46
57.92,41
57.98,49
58.04,65
58.1,129
58.16,107
58.22,67
58.28,93
58.34,71
58.4,37
58.46,27
58.52,41
58.58,42
58.64,33
58.7,29
58.76,31
58.82,40
58.88,36
58.94,41
59,41
59.06,43
59.12,51
59.18,38
59.24,44
59.3,45
59.36,48
59.42,48
59.48,39
59.54,37
59.6,39
59.66,33
59.72,41
59.78,32
59.84,41
59.9,40
59.96,29
60.02,37
60.08,39
60.14,28
60.2,33
60.26,33
60.32,50
60.38,27
60.44,57
60.5,49
60.56,75
60.62,155
60.68,467
60.74,422
60.8,208
60.86,296
60.92,265
60.98,217
61.04,290
61.1,194
61.16,140
61.22,168
61.28,116
61.34,135
61.4,321
61.46,201
61.52,113
61.58,134
61.64,106
61.7,48
61.76,41
61.82,36
61.88,51
61.94,41
62,59
62.06,52
62.12,43
62.18,44
62.24,29
62.3,35
62.36,43
62.42,44
62.48,34
62.54,40
62.6,34
62.66,41
62.72,44
62.78,34
62.84,36
62.9,40
62.96,35
63.02,98
63.08,190
63.14,143
63.2,89
63.26,119
63.32,89
63.38,45
63.44,27
63.5,56
63.56,34
63.62,26
63.68,36
63.74,22
63.8,27
63.86,34
63.92,26
63.98,28
64.04,23
64.1,46
64.16,26
64.22,44
64.28,41
64.34,32
64.4,28
64.46,55
64.52,53
64.58,84
64.64,240
64.7,543
64.76,268
64.82,196
64.88,231
64.94,134
65,55
65.06,45
65.12,46
65.18,33
65.24,31
65.3,26
65.36,34
65.42,47
65.48,47
65.54,81
65.6,205
65.66,259
65.72,138
65.78,132
65.84,154
65.9,75
65.96,36
66.02,41
66.08,31
66.14,24
66.2,28
66.26,29
66.32,35
66.38,36
66.44,30
66.5,31
66.56,20
66.62,28
66.68,31
66.74,32
66.8,29
66.86,28
66.92,36
66.98,32
67.04,39
67.1,31
67.16,29
67.22,26
67.28,28
67.34,34
67.4,37
67.46,26
67.52,27
67.58,28
67.64,34
67.7,28
67.76,37
67.82,33
67.88,41
67.94,28
68,25
68.06,40
68.12,52
68.18,57
68.24,80
68.3,57
68.36,66
68.42,58
68.48,52
68.54,64
68.6,66
68.66,61
68.72,56
68.78,46
68.84,57
68.9,49
68.96,38
69.02,28
69.08,44
69.14,52
69.2,130
69.26,99
69.32,58
69.38,81
69.44,90
69.5,58
69.56,39
69.62,53
69.68,63
69.74,55
69.8,44
69.86,49
69.92,45
69.98,50
70.01,56
,