File: Fig S2/FigS2_B_XRD_witherite_100mM_CaCl2.csv
Bragg_angle,Intensity
\circ,a.u.
9.87,251
9.93,269
9.99,226
10.05,237
10.11,251
10.17,236
10.23,229
10.29,210
10.35,203
10.41,183
10.47,174
10.53,137
10.59,135
10.65,157
10.71,140
10.77,143
10.83,143
10.89,127
10.95,139
11.01,148
11.07,123
11.13,131
11.19,143
11.25,145
11.31,151
11.37,154
11.43,117
11.49,137
11.55,159
11.61,136
11.67,126
11.73,140
11.79,126
11.85,147
11.91,129
11.97,138
12.03,115
12.09,118
12.15,155
12.21,149
12.27,152
12.33,142
12.39,135
12.45,127
12.51,124
12.57,122
12.63,142
12.69,140
12.75,127
12.81,146
12.87,124
12.93,116
12.99,121
13.05,133
13.11,112
13.17,128
13.23,112
13.29,131
13.35,120
13.41,131
13.47,122
13.53,123
13.59,110
13.65,126
13.71,124
13.77,143
13.83,132
13.89,117
13.95,128
14.01,116
14.07,114
14.13,133
14.19,120
14.25,135
14.31,133
14.37,120
14.43,120
14.49,152
14.55,116
14.61,126
14.67,131
14.73,114
14.79,118
14.85,149
14.91,117
14.97,140
15.03,117
15.09,125
15.15,100
15.21,107
15.27,144
15.33,106
15.39,102
15.45,114
15.51,121
15.57,128
15.63,116
15.69,112
15.75,129
15.81,112
15.87,114
15.93,139
15.99,105
16.05,118
16.11,126
16.17,117
16.23,119
16.29,103
16.35,99
16.41,98
16.47,112
16.53,107
16.59,94
16.65,107
16.71,114
16.77,92
16.83,104
16.89,97
16.95,99
17.01,110
17.07,124
17.13,105
17.19,93
17.25,103
17.31,94
17.37,102
17.43,100
17.49,97
17.55,95
17.61,97
17.67,83
17.73,88
17.79,92
17.85,92
17.91,85
17.97,90
18.03,94
18.09,94
18.15,103
18.21,77
18.27,101
18.33,90
18.39,84
18.45,83
18.51,94
18.57,105
18.63,99
18.69,107
18.75,100
18.81,104
18.87,92
18.93,93
18.99,108
19.05,115
19.11,146
19.17,188
19.23,250
19.29,430
19.35,666
19.41,673
19.47,452
19.53,338
19.59,249
19.65,252
19.71,260
19.77,254
19.83,272
19.89,250
19.95,183
20.01,126
20.07,89
20.13,93
20.19,88
20.25,85
20.31,95
20.37,114
20.43,74
20.49,89
20.55,97
20.61,81
20.67,95
20.73,78
20.79,83
20.85,81
20.91,64
20.97,76
21.03,88
21.09,80
21.15,97
21.21,87
21.27,92
21.33,87
21.39,97
21.45,106
21.51,121
21.57,112
21.63,94
21.69,94
21.75,112
21.81,95
21.87,89
21.93,93
21.99,96
22.05,95
22.11,115
22.17,80
22.23,85
22.29,81
22.35,101
22.41,82
22.47,69
22.53,78
22.59,103
22.65,86
22.71,69
22.77,93
22.83,110
22.89,90
22.95,113
23.01,118
23.07,109
23.13,107
23.19,110
23.25,116
23.31,133
23.37,153
23.43,200
23.49,222
23.55,319
23.61,474
23.67,884
23.73,1559
23.79,3181
23.85,3987
23.91,2853
23.97,1681
24.03,1455
24.09,1397
24.15,1537
24.21,1614
24.27,1083
24.33,569
24.39,327
24.45,210
24.51,163
24.57,143
24.63,149
24.69,130
24.75,105
24.81,102
24.87,121
24.93,105
24.99,110
25.05,92
25.11,97
25.17,80
25.23,97
25.29,95
25.35,98
25.41,87
25.47,91
25.53,92
25.59,81
25.65,66
25.71,88
25.77,78
25.83,88
25.89,101
25.95,102
26.01,83
26.07,93
26.13,87
26.19,94
26.25,79
26.31,101
26.37,102
26.43,78
26.49,79
26.55,80
26.61,67
26.67,74
26.73,78
26.79,64
26.85,75
26.91,76
26.97,80
27.03,104
27.09,74
27.15,80
27.21,82
27.27,72
27.33,82
27.39,91
27.45,125
27.51,135
27.57,251
27.63,491
27.69,474
27.75,242
27.81,115
27.87,95
27.93,77
27.99,85
28.05,70
28.11,96
28.17,68
28.23,76
28.29,66
28.35,72
28.41,86
28.47,77
28.53,71
28.59,79
28.65,61
28.71,80
28.77,77
28.83,83
28.89,79
28.95,74
29.01,106
29.07,143
29.13,181
29.19,425
29.25,1450
29.31,1376
29.37,715
29.43,263
29.49,191
29.55,183
29.61,118
29.67,90
29.73,73
29.79,62
29.85,85
29.91,65
29.97,70
30.03,77
30.09,78
30.15,69
30.21,71
30.27,75
30.33,80
30.39,98
30.45,74
30.51,73
30.57,83
30.63,82
30.69,92
30.75,71
30.81,60
30.87,78
30.93,69
30.99,80
31.05,65
31.11,84
31.17,76
31.23,90
31.29,67
31.35,70
31.41,52
31.47,76
31.53,51
31.59,68
31.65,72
31.71,66
31.77,61
31.83,80
31.89,56
31.95,66
32.01,69
32.07,65
32.13,62
32.19,71
32.25,91
32.31,98
32.37,94
32.43,103
32.49,115
32.55,98
32.61,95
32.67,79
32.73,69
32.79,78
32.85,76
32.91,73
32.97,79
33.03,101
33.09,104
33.15,107
33.21,119
33.27,131
33.33,136
33.39,149
33.45,180
33.51,295
33.57,427
33.63,592
33.69,639
33.75,593
33.81,552
33.87,566
33.93,658
33.99,945
34.05,1036
34.11,888
34.17,795
34.23,760
34.29,834
34.35,932
34.41,1084
34.47,1441
34.53,1526
34.59,1007
34.65,587
34.71,302
34.77,187
34.83,119
34.89,116
34.95,99
35.01,88
35.07,80
35.13,91
35.19,74
35.25,79
35.31,63
35.37,67
35.43,62
35.49,78
35.55,90
35.61,64
35.67,82
35.73,77
35.79,120
35.85,210
35.91,155
35.97,127
36.03,73
36.09,79
36.15,60
36.21,74
36.27,59
36.33,72
36.39,76
36.45,55
36.51,75
36.57,70
36.63,59
36.69,56
36.75,58
36.81,69
36.87,57
36.93,64
36.99,57
37.05,53
37.11,63
37.17,62
37.23,64
37.29,63
37.35,67
37.41,54
37.47,65
37.53,60
37.59,70
37.65,78
37.71,88
37.77,81
37.83,92
37.89,94
37.95,77
38.01,73
38.07,71
38.13,74
38.19,79
38.25,76
38.31,68
38.37,78
38.43,71
38.49,59
38.55,61
38.61,62
38.67,65
38.73,65
38.79,60
38.85,79
38.91,60
38.97,79
39.03,75
39.09,90
39.15,96
39.21,136
39.27,224
39.33,332
39.39,500
39.45,516
39.51,375
39.57,239
39.63,175
39.69,137
39.75,116
39.81,129
39.87,96
39.93,91
39.99,91
40.05,113
40.11,104
40.17,118
40.23,121
40.29,137
40.35,166
40.41,199
40.47,169
40.53,129
40.59,119
40.65,95
40.71,77
40.77,90
40.83,80
40.89,79
40.95,66
41.01,68
41.07,68
41.13,75
41.19,65
41.25,66
41.31,65
41.37,74
41.43,65
41.49,83
41.55,100
41.61,135
41.67,191
41.73,219
41.79,456
41.85,847
41.91,1310
41.97,1217
42.03,996
42.09,697
42.15,375
42.21,296
42.27,220
42.33,211
42.39,206
42.45,216
42.51,194
42.57,218
42.63,249
42.69,265
42.75,352
42.81,446
42.87,538
42.93,466
42.99,418
43.05,316
43.11,186
43.17,169
43.23,108
43.29,96
43.35,106
43.41,70
43.47,77
43.53,67
43.59,71
43.65,74
43.71,79
43.77,98
43.83,89
43.89,100
43.95,137
44.01,156
44.07,246
44.13,347
44.19,326
44.25,333
44.31,266
44.37,263
44.43,276
44.49,272
44.55,252
44.61,309
44.67,389
44.73,577
44.79,795
44.85,725
44.91,539
44.97,312
45.03,186
45.09,130
45.15,97
45.21,89
45.27,73
45.33,80
45.39,69
45.45,79
45.51,73
45.57,50
45.63,68
45.69,54
45.75,63
45.81,51
45.87,65
45.93,70
45.99,86
46.05,59
46.11,72
46.17,78
46.23,66
46.29,68
46.35,66
46.41,102
46.47,98
46.53,114
46.59,195
46.65,365
46.71,560
46.77,630
46.83,600
46.89,502
46.95,392
47.01,278
47.07,187
47.13,116
47.19,92
47.25,155
47.31,134
47.37,102
47.43,84
47.49,82
47.55,54
47.61,58
47.67,58
47.73,49
47.79,62
47.85,58
47.91,83
47.97,56
48.03,70
48.09,81
48.15,57
48.21,64
48.27,89
48.33,105
48.39,102
48.45,79
48.51,93
48.57,75
48.63,65
48.69,97
48.75,111
48.81,170
48.87,171
48.93,140
48.99,136
49.05,98
49.11,94
49.17,63
49.23,64
49.29,69
49.35,65
49.41,72
49.47,71
49.53,82
49.59,80
49.65,106
49.71,86
49.77,100
49.83,81
49.89,80
49.95,65
50.01,52
50.07,66
50.13,52
50.19,61
50.25,51
50.31,44
50.37,41
50.43,48
50.49,48
50.55,40
50.61,64
50.67,60
50.73,55
50.79,42
50.85,42
50.91,39
50.97,47
51.03,50
51.09,49
51.15,53
51.21,45
51.27,37
51.33,37
51.39,45
51.45,46
51.51,39
51.57,54
51.63,50
51.69,52
51.75,40
51.81,40
51.87,45
51.93,38
51.99,51
52.05,40
52.11,38
52.17,52
52.23,53
52.29,57
52.35,45
52.41,76
52.47,83
52.53,94
52.59,115
52.65,110
52.71,101
52.77,92
52.83,91
52.89,79
52.95,64
53.01,73
53.07,90
53.13,58
53.19,74
53.25,98
53.31,85
53.37,86
53.43,115
53.49,116
53.55,123
53.61,131
53.67,129
53.73,108
53.79,108
53.85,77
53.91,92
53.97,95
54.03,95
54.09,108
54.15,104
54.21,122
54.27,115
54.33,122
54.39,139
54.45,156
54.51,169
54.57,194
54.63,242
54.69,247
54.75,239
54.81,216
54.87,164
54.93,174
54.99,137
55.05,134
55.11,131
55.17,153
55.23,121
55.29,133
55.35,150
55.41,185
55.47,214
55.53,252
55.59,317
55.65,340
55.71,266
55.77,263
55.83,210
55.89,209
55.95,202
56.01,195
56.07,228
56.13,250
56.19,267
56.25,257
56.31,236
56.37,168
56.43,126
56.49,102
56.55,95
56.61,65
56.67,56
56.73,64
56.79,55
56.85,59
56.91,48
56.97,51
57.03,66
57.09,63
57.15,102
57.21,108
57.27,87
57.33,101
57.39,83
57.45,73
57.51,43
57.57,46
57.63,62
57.69,55
57.75,59
57.81,57
57.87,49
57.93,48
57.99,42
58.05,59
58.11,68
58.17,37
58.23,46
58.29,50
58.35,58
58.41,45
58.47,47
58.53,46
58.59,55
58.65,52
58.71,46
58.77,50
58.83,65
58.89,86
58.95,127
59.01,158
59.07,147
59.13,125
59.19,118
59.25,93
59.31,88
59.37,58
59.43,61
59.49,59
59.55,53
59.61,85
59.67,86
59.73,81
59.79,77
59.85,81
59.91,86
59.97,66
60.03,56
60.09,57
60.15,64
60.21,71
60.27,73
60.33,50
60.39,99
60.45,107
60.51,148
60.57,124
60.63,160
60.69,188
60.75,287
60.81,275
60.87,273
60.93,280
60.99,283
61.05,225
61.11,207
61.17,195
61.23,139
61.29,133
61.35,132
61.41,158
61.47,125
61.53,122
61.59,100
61.65,100
61.71,104
61.77,91
61.83,103
61.89,119
61.95,92
62.01,106
62.07,95
62.13,111
62.19,93
62.25,104
62.31,101
62.37,112
62.43,102
62.49,121
62.55,99
62.61,93
62.67,81
62.73,69
62.79,65
62.85,52
62.91,61
62.97,58
63.03,39
63.09,72
63.15,59
63.21,50
63.27,58
63.33,43
63.39,52
63.45,44
63.51,51
63.57,46
63.63,38
63.69,55
63.75,52
63.81,40
63.87,32
63.93,46
63.99,34
64.05,36
64.11,47
64.17,49
64.23,46
64.29,40
64.35,53
64.41,50
64.47,62
64.53,70
64.59,63
64.65,60
64.71,64
64.77,43
64.83,61
64.89,54
64.95,38
65.01,31
65.07,36
65.13,51
65.19,43
65.25,49
65.31,32
65.37,33
65.43,38
65.49,36
65.55,36
65.61,50
65.67,31
65.73,36
65.79,42
65.85,53
65.91,38
65.97,40
66.03,46
66.09,46
66.15,44
66.21,45
66.27,50
66.33,45
66.39,49
66.45,37
66.51,38
66.57,33
66.63,33
66.69,37
66.75,49
66.81,35
66.87,34
66.93,36
66.99,42
67.05,41
67.11,48
67.17,53
67.23,61
67.29,46
67.35,40
67.41,37
67.47,56
67.53,55
67.59,52
67.65,67
67.71,64
67.77,57
67.83,76
67.89,106
67.95,141
68.01,232
68.07,283
68.13,272
68.19,256
68.25,245
68.31,183
68.37,193
68.43,178
68.49,176
68.55,185
68.61,191
68.67,158
68.73,140
68.79,133
68.85,99
68.91,89
68.97,71
69.03,62
69.09,72
69.15,70
69.21,75
69.27,76
69.33,79
69.39,124
69.45,126
69.51,176
69.57,176
69.63,187
69.69,189
69.75,170
69.81,152
69.87,147